## File LOS/SB2_B2004a_2.6z_Mags_1200.bpz  Sat Aug 13 01:32:26 2016
##
##Parameters used to run BPZ:
##
##AB_DIR=/home/lidenscheng/bpz-1.99.3//AB/
##ADD_CONTINUOUS_PROB=None
##ADD_SPEC_PROB=None
##CHECK=LOS/SB2_B2004a_2.6z_Mags_1200.flux_comparison
##COLOR=no
##COLUMNS=losNoErrors.columns
##CONVOLVE_P=yes
##DELTA_M_0=0.0
##DZ=0.01
##EXCLUDE=none
##FC=None
##FILTER_DIR=/home/lidenscheng/MK_DirectSim/filters/
##GET_Z=yes
##INPUT=LOS/SB2_B2004a_2.6z_Mags_1200.txt
##INTERACTIVE=yes
##INTERP=0
##MADAU=no
##MAG=yes
##MEAN_IGM=yes
##MERGE_PEAKS=no
##MIN_MAGERR=0.001
##MIN_RMS=0.05
##NEW_AB=no
##NMAX=None
##NTYPES=None
##N_PEAKS=1
##ODDS=0.95
##ONLY_TYPE=no
##OUTPUT=LOS/SB2_B2004a_2.6z_Mags_1200.bpz
##PHOTO_ERRORS=no
##PLOTS=no
##PRIOR=none
##PROBS=no
##PROBS2=no
##PROBS_LITE=LOS/SB2_B2004a_2.6z_Mags_1200.probs
##P_MIN=0.01
##SED_DIR=/home/lidenscheng/MK_DirectSim/SEDs/
##SPECTRA=SB2.list
##VERBOSE=yes
##ZC=None
##ZMAX=10.0
##ZMIN=0.01
##ZP_OFFSETS=0.0
##Z_THR=0
##
##Column information
##
# 1 ID
# 2 Z_B
# 3 Z_B_MIN
# 4 Z_B_MAX
# 5 T_B
# 6 ODDS    
# 7 Z_ML
# 8 T_ML
# 9 CHI-SQUARED
# 10 M_0
##
    1 2.650 2.292  3.008 1.000 1.00000 2.650 1.000      2.230  23.000
    2 2.680 2.319  3.041 1.000 1.00000 2.680 1.000     13.802  23.000
    3 2.640 2.283  2.997 1.000 1.00000 2.640 1.000      1.728  23.000
    4 2.730 2.364  3.096 1.000 1.00000 2.730 1.000     10.175  23.000
    5 2.650 2.292  3.008 1.000 1.00000 2.650 1.000      8.778  23.000
    6 2.660 2.301  3.019 1.000 1.00000 2.660 1.000      3.671  23.000
    7 2.660 2.301  3.019 1.000 1.00000 2.660 1.000      0.864  23.000
    8 2.640 2.283  2.997 1.000 1.00000 2.640 1.000      0.701  23.000
    9 2.640 2.283  2.997 1.000 1.00000 2.640 1.000      1.382  23.000
   10 2.680 2.319  3.041 1.000 1.00000 2.680 1.000     17.148  23.000
   11 2.660 2.301  3.019 1.000 1.00000 2.660 1.000      1.228  23.000
   12 2.690 2.328  3.052 1.000 1.00000 2.690 1.000     14.806  23.000
   13 2.650 2.292  3.008 1.000 1.00000 2.650 1.000      1.454  23.000
   14 2.700 2.337  3.063 1.000 1.00000 2.700 1.000     14.023  23.000
   15 2.720 2.355  3.085 1.000 1.00000 2.720 1.000     11.712  23.000
   16 2.710 2.346  3.074 1.000 1.00000 2.710 1.000     30.946  23.000
   17 2.660 2.301  3.019 1.000 1.00000 2.660 1.000      4.694  23.000
   18 2.620 2.265  2.975 1.000 1.00000 2.620 1.000      0.151  23.000
   19 2.620 2.265  2.975 1.000 1.00000 2.620 1.000      0.381  23.000
   20 2.660 2.301  3.019 1.000 1.00000 2.660 1.000      5.950  23.000
   21 2.650 2.292  3.008 1.000 1.00000 2.650 1.000      4.882  23.000
   22 2.580 2.229  2.931 1.000 1.00000 2.580 1.000      0.415  23.000
   23 2.650 2.292  3.008 1.000 1.00000 2.650 1.000      3.917  23.000
   24 2.670 2.310  3.030 1.000 1.00000 2.670 1.000      2.366  23.000
   25 2.680 2.319  3.041 1.000 1.00000 2.680 1.000     14.596  23.000
   26 2.650 2.292  3.008 1.000 1.00000 2.650 1.000      4.802  23.000
   27 2.650 2.292  3.008 1.000 1.00000 2.650 1.000     11.616  23.000
   28 2.680 2.319  3.041 1.000 1.00000 2.680 1.000     14.711  23.000
   29 2.630 2.274  2.986 1.000 1.00000 2.630 1.000      0.933  23.000
   30 2.760 2.392  3.128 1.000 1.00000 2.760 1.000     97.741  23.000
   31 2.650 2.292  3.008 1.000 1.00000 2.650 1.000      1.453  23.000
   32 2.620 2.265  2.975 1.000 1.00000 2.620 1.000      0.135  23.000
   33 2.670 2.310  3.030 1.000 1.00000 2.670 1.000      8.743  23.000
   34 2.660 2.301  3.019 1.000 1.00000 2.660 1.000      2.597  23.000
   35 2.680 2.319  3.041 1.000 1.00000 2.680 1.000      7.299  23.000
   36 2.660 2.301  3.019 1.000 1.00000 2.660 1.000      7.242  23.000
   37 2.650 2.292  3.008 1.000 1.00000 2.650 1.000      0.488  23.000
   38 2.740 2.373  3.107 1.000 1.00000 2.740 1.000     18.219  23.000
   39 2.640 2.283  2.997 1.000 1.00000 2.640 1.000      1.119  23.000
   40 2.620 2.265  2.975 1.000 1.00000 2.620 1.000      0.280  23.000
   41 2.650 2.292  3.008 1.000 1.00000 2.650 1.000      5.111  23.000
   42 2.640 2.283  2.997 1.000 1.00000 2.640 1.000      0.700  23.000
   43 2.650 2.292  3.008 1.000 1.00000 2.650 1.000      0.480  23.000
   44 2.650 2.292  3.008 1.000 1.00000 2.650 1.000      3.882  23.000
   45 2.660 2.301  3.019 1.000 1.00000 2.660 1.000      4.175  23.000
   46 2.650 2.292  3.008 1.000 1.00000 2.650 1.000      4.337  23.000
   47 2.660 2.301  3.019 1.000 1.00000 2.660 1.000      3.426  23.000
   48 2.680 2.319  3.041 1.000 1.00000 2.680 1.000      9.064  23.000
   49 2.590 2.238  2.942 1.000 1.00000 2.590 1.000      1.053  23.000
   50 2.610 2.256  2.964 1.000 1.00000 2.610 1.000      0.631  23.000
   51 2.650 2.292  3.008 1.000 1.00000 2.650 1.000      3.596  23.000
   52 2.660 2.301  3.019 1.000 1.00000 2.660 1.000      6.531  23.000
   53 2.750 2.383  3.117 1.000 1.00000 2.750 1.000     41.437  23.000
   54 2.740 2.373  3.107 1.000 1.00000 2.740 1.000     20.503  23.000
   55 2.700 2.337  3.063 1.000 1.00000 2.700 1.000     10.657  23.000
   56 2.640 2.283  2.997 1.000 1.00000 2.640 1.000      0.590  23.000
   57 2.760 2.392  3.128 1.000 1.00000 2.760 1.000     52.396  23.000
   58 2.690 2.328  3.052 1.000 1.00000 2.690 1.000     20.793  23.000
   59 2.660 2.301  3.019 1.000 1.00000 2.660 1.000      6.218  23.000
   60 2.650 2.292  3.008 1.000 1.00000 2.650 1.000      4.983  23.000
   61 2.660 2.301  3.019 1.000 1.00000 2.660 1.000      4.385  23.000
   62 2.660 2.301  3.019 1.000 1.00000 2.660 1.000      3.797  23.000
   63 2.680 2.319  3.041 1.000 1.00000 2.680 1.000     21.029  23.000
   64 2.740 2.373  3.107 1.000 1.00000 2.740 1.000     33.283  23.000
   65 2.660 2.301  3.019 1.000 1.00000 2.660 1.000      6.863  23.000
   66 2.650 2.292  3.008 1.000 1.00000 2.650 1.000      1.372  23.000
   67 2.690 2.328  3.052 1.000 1.00000 2.690 1.000     22.599  23.000
   68 2.690 2.328  3.052 1.000 1.00000 2.690 1.000     15.936  23.000
   69 2.660 2.301  3.019 1.000 1.00000 2.660 1.000      1.786  23.000
   70 2.630 2.274  2.986 1.000 1.00000 2.630 1.000      2.825  23.000
   71 2.650 2.292  3.008 1.000 1.00000 2.650 1.000     11.347  23.000
   72 2.670 2.310  3.030 1.000 1.00000 2.670 1.000      3.411  23.000
   73 2.670 2.310  3.030 1.000 1.00000 2.670 1.000     19.538  23.000
   74 2.650 2.292  3.008 1.000 1.00000 2.650 1.000      2.583  23.000
   75 2.650 2.292  3.008 1.000 1.00000 2.650 1.000      1.869  23.000
   76 2.670 2.310  3.030 1.000 1.00000 2.670 1.000      2.417  23.000
   77 2.640 2.283  2.997 1.000 1.00000 2.640 1.000      0.333  23.000
   78 2.720 2.355  3.085 1.000 1.00000 2.720 1.000     26.976  23.000
   79 2.650 2.292  3.008 1.000 1.00000 2.650 1.000      8.678  23.000
   80 2.690 2.328  3.052 1.000 1.00000 2.690 1.000     15.883  23.000
   81 2.720 2.355  3.085 1.000 1.00000 2.720 1.000     18.882  23.000
   82 2.640 2.283  2.997 1.000 1.00000 2.640 1.000      3.008  23.000
   83 2.650 2.292  3.008 1.000 1.00000 2.650 1.000      6.272  23.000
   84 2.650 2.292  3.008 1.000 1.00000 2.650 1.000      5.612  23.000
   85 2.660 2.301  3.019 1.000 1.00000 2.660 1.000      1.487  23.000
   86 2.650 2.292  3.008 1.000 1.00000 2.650 1.000      1.786  23.000
   87 2.710 2.346  3.074 1.000 1.00000 2.710 1.000     20.320  23.000
   88 2.660 2.301  3.019 1.000 1.00000 2.660 1.000      7.380  23.000
   89 2.760 2.392  3.128 1.000 1.00000 2.760 1.000     61.245  23.000
   90 2.710 2.346  3.074 1.000 1.00000 2.710 1.000     15.885  23.000
   91 2.650 2.292  3.008 1.000 1.00000 2.650 1.000      0.753  23.000
   92 2.650 2.292  3.008 1.000 1.00000 2.650 1.000      1.880  23.000
   93 2.660 2.301  3.019 1.000 1.00000 2.660 1.000      4.212  23.000
   94 2.670 2.310  3.030 1.000 1.00000 2.670 1.000     10.202  23.000
   95 2.630 2.274  2.986 1.000 1.00000 2.630 1.000      0.794  23.000
   96 2.670 2.310  3.030 1.000 1.00000 2.670 1.000      8.796  23.000
   97 2.610 2.256  2.964 1.000 1.00000 2.610 1.000      0.141  23.000
   98 2.660 2.301  3.019 1.000 1.00000 2.660 1.000     11.378  23.000
   99 2.590 2.238  2.942 1.000 1.00000 2.590 1.000      0.348  23.000
  100 2.680 2.319  3.041 1.000 1.00000 2.680 1.000     14.111  23.000
  101 2.660 2.301  3.019 1.000 1.00000 2.660 1.000      8.310  23.000
  102 2.620 2.265  2.975 1.000 1.00000 2.620 1.000      0.359  23.000
  103 2.660 2.301  3.019 1.000 1.00000 2.660 1.000      5.395  23.000
  104 2.650 2.292  3.008 1.000 1.00000 2.650 1.000      1.322  23.000
  105 2.650 2.292  3.008 1.000 1.00000 2.650 1.000      2.086  23.000
  106 2.660 2.301  3.019 1.000 1.00000 2.660 1.000      9.529  23.000
  107 2.660 2.301  3.019 1.000 1.00000 2.660 1.000      1.751  23.000
  108 2.780 2.410  3.150 1.000 1.00000 2.780 1.000     86.579  23.000
  109 2.680 2.319  3.041 1.000 1.00000 2.680 1.000     12.132  23.000
  110 2.630 2.274  2.986 1.000 1.00000 2.630 1.000      3.807  23.000
  111 2.630 2.274  2.986 1.000 1.00000 2.630 1.000      0.330  23.000
  112 2.650 2.292  3.008 1.000 1.00000 2.650 1.000      1.303  23.000
  113 2.650 2.292  3.008 1.000 1.00000 2.650 1.000      3.274  23.000
  114 2.670 2.310  3.030 1.000 1.00000 2.670 1.000      7.604  23.000
  115 2.560 2.211  2.909 1.000 1.00000 2.560 1.000      0.607  23.000
  116 2.650 2.292  3.008 1.000 1.00000 2.650 1.000      3.427  23.000
  117 2.670 2.310  3.030 1.000 1.00000 2.670 1.000      8.102  23.000
  118 2.680 2.319  3.041 1.000 1.00000 2.680 1.000      3.901  23.000
  119 2.680 2.319  3.041 1.000 1.00000 2.680 1.000      6.427  23.000
  120 2.660 2.301  3.019 1.000 1.00000 2.660 1.000      3.758  23.000
  121 2.650 2.292  3.008 1.000 1.00000 2.650 1.000      2.213  23.000
  122 2.570 2.220  2.920 1.000 1.00000 2.570 1.000      0.252  23.000
  123 2.600 2.247  2.953 1.000 1.00000 2.600 1.000      1.088  23.000
  124 2.660 2.301  3.019 1.000 1.00000 2.660 1.000      7.113  23.000
  125 2.720 2.355  3.085 1.000 1.00000 2.720 1.000     13.343  23.000
  126 2.660 2.301  3.019 1.000 1.00000 2.660 1.000      9.809  23.000
  127 2.720 2.355  3.085 1.000 1.00000 2.720 1.000     38.887  23.000
  128 2.690 2.328  3.052 1.000 1.00000 2.690 1.000     19.815  23.000
  129 2.620 2.265  2.975 1.000 1.00000 2.620 1.000      0.267  23.000
  130 2.660 2.301  3.019 1.000 1.00000 2.660 1.000      5.508  23.000
  131 2.660 2.301  3.019 1.000 1.00000 2.660 1.000      4.678  23.000
  132 2.660 2.301  3.019 1.000 1.00000 2.660 1.000      3.560  23.000
  133 2.690 2.328  3.052 1.000 1.00000 2.690 1.000     31.303  23.000
  134 2.710 2.346  3.074 1.000 1.00000 2.710 1.000     15.959  23.000
  135 2.650 2.292  3.008 1.000 1.00000 2.650 1.000      5.201  23.000
  136 2.640 2.283  2.997 1.000 1.00000 2.640 1.000      0.369  23.000
  137 2.660 2.301  3.019 1.000 1.00000 2.660 1.000      1.630  23.000
  138 2.660 2.301  3.019 1.000 1.00000 2.660 1.000      9.943  23.000
  139 2.690 2.328  3.052 1.000 1.00000 2.690 1.000     21.279  23.000
  140 2.680 2.319  3.041 1.000 1.00000 2.680 1.000     17.174  23.000
  141 2.740 2.373  3.107 1.000 1.00000 2.740 1.000     46.320  23.000
  142 2.650 2.292  3.008 1.000 1.00000 2.650 1.000      1.179  23.000
  143 2.710 2.346  3.074 1.000 1.00000 2.710 1.000      3.717  23.000
  144 2.650 2.292  3.008 1.000 1.00000 2.650 1.000      1.053  23.000
  145 2.660 2.301  3.019 1.000 1.00000 2.660 1.000      7.136  23.000
  146 2.650 2.292  3.008 1.000 1.00000 2.650 1.000      7.680  23.000
  147 2.640 2.283  2.997 1.000 1.00000 2.640 1.000      0.806  23.000
  148 2.680 2.319  3.041 1.000 1.00000 2.680 1.000     10.069  23.000
  149 2.650 2.292  3.008 1.000 1.00000 2.650 1.000      2.869  23.000
  150 2.650 2.292  3.008 1.000 1.00000 2.650 1.000      4.451  23.000
  151 2.650 2.292  3.008 1.000 1.00000 2.650 1.000      2.876  23.000
  152 2.600 2.247  2.953 1.000 1.00000 2.600 1.000      0.838  23.000
  153 2.650 2.292  3.008 1.000 1.00000 2.650 1.000      6.367  23.000
  154 2.690 2.328  3.052 1.000 1.00000 2.690 1.000     16.082  23.000
  155 2.650 2.292  3.008 1.000 1.00000 2.650 1.000      2.887  23.000
  156 2.680 2.319  3.041 1.000 1.00000 2.680 1.000      6.448  23.000
  157 2.640 2.283  2.997 1.000 1.00000 2.640 1.000      2.786  23.000
  158 2.650 2.292  3.008 1.000 1.00000 2.650 1.000      6.929  23.000
  159 2.680 2.319  3.041 1.000 1.00000 2.680 1.000      4.512  23.000
  160 2.620 2.265  2.975 1.000 1.00000 2.620 1.000      1.085  23.000
  161 2.750 2.383  3.117 1.000 1.00000 2.750 1.000     35.372  23.000
  162 2.650 2.292  3.008 1.000 1.00000 2.650 1.000      6.583  23.000
  163 2.710 2.346  3.074 1.000 1.00000 2.710 1.000     11.838  23.000
  164 2.640 2.283  2.997 1.000 1.00000 2.640 1.000      1.227  23.000
  165 2.650 2.292  3.008 1.000 1.00000 2.650 1.000     11.191  23.000
  166 2.670 2.310  3.030 1.000 1.00000 2.670 1.000      4.273  23.000
  167 2.600 2.247  2.953 1.000 1.00000 2.600 1.000      0.233  23.000
  168 2.640 2.283  2.997 1.000 1.00000 2.640 1.000      3.976  23.000
  169 2.650 2.292  3.008 1.000 1.00000 2.650 1.000      4.694  23.000
  170 2.660 2.301  3.019 1.000 1.00000 2.660 1.000     11.033  23.000
  171 2.680 2.319  3.041 1.000 1.00000 2.680 1.000     20.801  23.000
  172 2.670 2.310  3.030 1.000 1.00000 2.670 1.000      1.119  23.000
  173 2.660 2.301  3.019 1.000 1.00000 2.660 1.000     13.772  23.000
  174 2.620 2.265  2.975 1.000 1.00000 2.620 1.000      1.286  23.000
  175 2.650 2.292  3.008 1.000 1.00000 2.650 1.000      2.198  23.000
  176 2.630 2.274  2.986 1.000 1.00000 2.630 1.000      0.812  23.000
  177 2.650 2.292  3.008 1.000 1.00000 2.650 1.000      2.163  23.000
  178 2.720 2.355  3.085 1.000 1.00000 2.720 1.000     11.366  23.000
  179 2.710 2.346  3.074 1.000 1.00000 2.710 1.000     15.348  23.000
  180 2.660 2.301  3.019 1.000 1.00000 2.660 1.000      5.543  23.000
  181 2.660 2.301  3.019 1.000 1.00000 2.660 1.000      8.021  23.000
  182 2.650 2.292  3.008 1.000 1.00000 2.650 1.000      5.488  23.000
  183 2.680 2.319  3.041 1.000 1.00000 2.680 1.000      6.871  23.000
  184 2.620 2.265  2.975 1.000 1.00000 2.620 1.000      2.270  23.000
  185 2.650 2.292  3.008 1.000 1.00000 2.650 1.000      5.576  23.000
  186 2.670 2.310  3.030 1.000 1.00000 2.670 1.000     12.951  23.000
  187 2.660 2.301  3.019 1.000 1.00000 2.660 1.000     21.389  23.000
  188 2.680 2.319  3.041 1.000 1.00000 2.680 1.000     13.978  23.000
  189 2.630 2.274  2.986 1.000 1.00000 2.630 1.000      0.956  23.000
  190 2.690 2.328  3.052 1.000 1.00000 2.690 1.000      3.761  23.000
  191 2.670 2.310  3.030 1.000 1.00000 2.670 1.000     14.773  23.000
  192 2.730 2.364  3.096 1.000 1.00000 2.730 1.000     38.847  23.000
  193 2.650 2.292  3.008 1.000 1.00000 2.650 1.000      0.740  23.000
  194 2.660 2.301  3.019 1.000 1.00000 2.660 1.000     12.008  23.000
  195 2.650 2.292  3.008 1.000 1.00000 2.650 1.000      1.960  23.000
  196 2.740 2.373  3.107 1.000 1.00000 2.740 1.000     35.602  23.000
  197 2.620 2.265  2.975 1.000 1.00000 2.620 1.000      0.410  23.000
  198 2.650 2.292  3.008 1.000 1.00000 2.650 1.000      2.619  23.000
  199 2.650 2.292  3.008 1.000 1.00000 2.650 1.000      5.423  23.000
  200 2.660 2.301  3.019 1.000 1.00000 2.660 1.000      8.358  23.000
  201 2.650 2.292  3.008 1.000 1.00000 2.650 1.000      2.024  23.000
  202 2.690 2.328  3.052 1.000 1.00000 2.690 1.000      4.899  23.000
  203 2.650 2.292  3.008 1.000 1.00000 2.650 1.000      7.164  23.000
  204 2.730 2.364  3.096 1.000 1.00000 2.730 1.000     22.136  23.000
  205 2.640 2.283  2.997 1.000 1.00000 2.640 1.000      0.384  23.000
  206 2.610 2.256  2.964 1.000 1.00000 2.610 1.000      2.047  23.000
  207 2.650 2.292  3.008 1.000 1.00000 2.650 1.000     10.418  23.000
  208 2.660 2.301  3.019 1.000 1.00000 2.660 1.000      1.566  23.000
  209 2.660 2.301  3.019 1.000 1.00000 2.660 1.000      2.915  23.000
  210 2.660 2.301  3.019 1.000 1.00000 2.660 1.000      2.964  23.000
  211 2.690 2.328  3.052 1.000 1.00000 2.690 1.000     17.264  23.000
  212 2.650 2.292  3.008 1.000 1.00000 2.650 1.000      4.885  23.000
  213 2.640 2.283  2.997 1.000 1.00000 2.640 1.000      0.292  23.000
  214 2.650 2.292  3.008 1.000 1.00000 2.650 1.000     10.994  23.000
  215 2.650 2.292  3.008 1.000 1.00000 2.650 1.000      4.597  23.000
  216 2.660 2.301  3.019 1.000 1.00000 2.660 1.000     10.651  23.000
  217 2.730 2.364  3.096 1.000 1.00000 2.730 1.000     18.811  23.000
  218 2.650 2.292  3.008 1.000 1.00000 2.650 1.000      3.275  23.000
  219 2.620 2.265  2.975 1.000 1.00000 2.620 1.000      0.312  23.000
  220 2.660 2.301  3.019 1.000 1.00000 2.660 1.000      8.872  23.000
  221 2.660 2.301  3.019 1.000 1.00000 2.660 1.000      4.599  23.000
  222 2.630 2.274  2.986 1.000 1.00000 2.630 1.000      2.568  23.000
  223 2.640 2.283  2.997 1.000 1.00000 2.640 1.000      0.505  23.000
  224 2.650 2.292  3.008 1.000 1.00000 2.650 1.000     10.448  23.000
  225 2.660 2.301  3.019 1.000 1.00000 2.660 1.000      4.750  23.000
  226 2.660 2.301  3.019 1.000 1.00000 2.660 1.000      8.340  23.000
  227 2.640 2.283  2.997 1.000 1.00000 2.640 1.000      1.177  23.000
  228 2.580 2.229  2.931 1.000 1.00000 2.580 1.000      0.198  23.000
  229 2.660 2.301  3.019 1.000 1.00000 2.660 1.000      5.867  23.000
  230 2.700 2.337  3.063 1.000 1.00000 2.700 1.000      9.125  23.000
  231 2.690 2.328  3.052 1.000 1.00000 2.690 1.000      9.683  23.000
  232 2.650 2.292  3.008 1.000 1.00000 2.650 1.000      6.963  23.000
  233 2.680 2.319  3.041 1.000 1.00000 2.680 1.000      7.976  23.000
  234 2.660 2.301  3.019 1.000 1.00000 2.660 1.000     13.551  23.000
  235 2.650 2.292  3.008 1.000 1.00000 2.650 1.000      7.325  23.000
  236 2.730 2.364  3.096 1.000 1.00000 2.730 1.000     43.601  23.000
  237 2.620 2.265  2.975 1.000 1.00000 2.620 1.000      1.164  23.000
  238 2.660 2.301  3.019 1.000 1.00000 2.660 1.000     10.278  23.000
  239 2.660 2.301  3.019 1.000 1.00000 2.660 1.000      4.571  23.000
  240 2.680 2.319  3.041 1.000 1.00000 2.680 1.000      5.402  23.000
  241 2.700 2.337  3.063 1.000 1.00000 2.700 1.000      6.455  23.000
  242 2.690 2.328  3.052 1.000 1.00000 2.690 1.000     10.470  23.000
  243 2.650 2.292  3.008 1.000 1.00000 2.650 1.000      3.218  23.000
  244 2.650 2.292  3.008 1.000 1.00000 2.650 1.000      3.481  23.000
  245 2.660 2.301  3.019 1.000 1.00000 2.660 1.000      3.226  23.000
  246 2.660 2.301  3.019 1.000 1.00000 2.660 1.000      9.787  23.000
  247 2.660 2.301  3.019 1.000 1.00000 2.660 1.000      5.891  23.000
  248 2.630 2.274  2.986 1.000 1.00000 2.630 1.000      0.172  23.000
  249 2.660 2.301  3.019 1.000 1.00000 2.660 1.000      9.312  23.000
  250 2.660 2.301  3.019 1.000 1.00000 2.660 1.000      2.755  23.000
  251 2.700 2.337  3.063 1.000 1.00000 2.700 1.000     30.861  23.000
  252 2.650 2.292  3.008 1.000 1.00000 2.650 1.000      4.782  23.000
  253 2.670 2.310  3.030 1.000 1.00000 2.670 1.000      4.085  23.000
  254 2.660 2.301  3.019 1.000 1.00000 2.660 1.000     22.385  23.000
  255 2.650 2.292  3.008 1.000 1.00000 2.650 1.000      2.198  23.000
  256 2.660 2.301  3.019 1.000 1.00000 2.660 1.000     10.577  23.000
  257 2.660 2.301  3.019 1.000 1.00000 2.660 1.000      6.249  23.000
  258 2.620 2.265  2.975 1.000 1.00000 2.620 1.000      0.477  23.000
  259 2.620 2.265  2.975 1.000 1.00000 2.620 1.000      0.689  23.000
  260 2.710 2.346  3.074 1.000 1.00000 2.710 1.000     19.604  23.000
  261 2.680 2.319  3.041 1.000 1.00000 2.680 1.000     12.689  23.000
  262 2.670 2.310  3.030 1.000 1.00000 2.670 1.000     10.662  23.000
  263 2.690 2.328  3.052 1.000 1.00000 2.690 1.000      7.305  23.000
  264 2.650 2.292  3.008 1.000 1.00000 2.650 1.000      4.200  23.000
  265 2.650 2.292  3.008 1.000 1.00000 2.650 1.000      5.430  23.000
  266 2.660 2.301  3.019 1.000 1.00000 2.660 1.000      5.874  23.000
  267 2.700 2.337  3.063 1.000 1.00000 2.700 1.000     13.342  23.000
  268 2.710 2.346  3.074 1.000 1.00000 2.710 1.000     21.505  23.000
  269 2.650 2.292  3.008 1.000 1.00000 2.650 1.000      6.138  23.000
  270 2.660 2.301  3.019 1.000 1.00000 2.660 1.000     13.851  23.000
  271 2.690 2.328  3.052 1.000 1.00000 2.690 1.000      3.477  23.000
  272 2.660 2.301  3.019 1.000 1.00000 2.660 1.000      7.554  23.000
  273 2.670 2.310  3.030 1.000 1.00000 2.670 1.000     10.143  23.000
  274 2.650 2.292  3.008 1.000 1.00000 2.650 1.000      6.372  23.000
  275 2.660 2.301  3.019 1.000 1.00000 2.660 1.000      4.758  23.000
  276 2.670 2.310  3.030 1.000 1.00000 2.670 1.000     21.577  23.000
  277 2.670 2.310  3.030 1.000 1.00000 2.670 1.000      9.157  23.000
  278 2.630 2.274  2.986 1.000 1.00000 2.630 1.000      0.233  23.000
  279 2.680 2.319  3.041 1.000 1.00000 2.680 1.000     12.857  23.000
  280 2.680 2.319  3.041 1.000 1.00000 2.680 1.000      3.083  23.000
  281 2.660 2.301  3.019 1.000 1.00000 2.660 1.000      1.374  23.000
  282 2.630 2.274  2.986 1.000 1.00000 2.630 1.000      1.280  23.000
  283 2.630 2.274  2.986 1.000 1.00000 2.630 1.000      0.705  23.000
  284 2.750 2.383  3.117 1.000 1.00000 2.750 1.000     25.927  23.000
  285 2.640 2.283  2.997 1.000 1.00000 2.640 1.000      0.470  23.000
  286 2.610 2.256  2.964 1.000 1.00000 2.610 1.000      2.061  23.000
  287 2.620 2.265  2.975 1.000 1.00000 2.620 1.000      4.937  23.000
  288 2.650 2.292  3.008 1.000 1.00000 2.650 1.000     10.085  23.000
  289 2.650 2.292  3.008 1.000 1.00000 2.650 1.000      8.896  23.000
  290 2.660 2.301  3.019 1.000 1.00000 2.660 1.000      3.601  23.000
  291 2.580 2.229  2.931 1.000 1.00000 2.580 1.000      0.405  23.000
  292 2.640 2.283  2.997 1.000 1.00000 2.640 1.000      1.180  23.000
  293 2.690 2.328  3.052 1.000 1.00000 2.690 1.000     11.984  23.000
  294 2.650 2.292  3.008 1.000 1.00000 2.650 1.000      1.222  23.000
  295 2.680 2.319  3.041 1.000 1.00000 2.680 1.000      6.844  23.000
  296 2.750 2.383  3.117 1.000 1.00000 2.750 1.000     64.832  23.000
  297 2.760 2.392  3.128 1.000 1.00000 2.760 1.000     68.571  23.000
  298 2.660 2.301  3.019 1.000 1.00000 2.660 1.000      6.308  23.000
  299 2.600 2.247  2.953 1.000 1.00000 2.600 1.000      1.406  23.000
  300 2.660 2.301  3.019 1.000 1.00000 2.660 1.000      5.254  23.000
  301 2.640 2.283  2.997 1.000 1.00000 2.640 1.000      0.270  23.000
  302 2.680 2.319  3.041 1.000 1.00000 2.690 1.000     19.582  23.000
  303 2.630 2.274  2.986 1.000 1.00000 2.630 1.000      0.294  23.000
  304 2.650 2.292  3.008 1.000 1.00000 2.650 1.000      3.072  23.000
  305 2.600 2.247  2.953 1.000 1.00000 2.600 1.000      0.491  23.000
  306 2.650 2.292  3.008 1.000 1.00000 2.650 1.000      1.237  23.000
  307 2.660 2.301  3.019 1.000 1.00000 2.660 1.000      6.280  23.000
  308 2.650 2.292  3.008 1.000 1.00000 2.650 1.000      9.027  23.000
  309 2.650 2.292  3.008 1.000 1.00000 2.650 1.000      1.312  23.000
  310 2.670 2.310  3.030 1.000 1.00000 2.670 1.000      9.025  23.000
  311 2.610 2.256  2.964 1.000 1.00000 2.610 1.000      7.954  23.000
  312 2.660 2.301  3.019 1.000 1.00000 2.660 1.000     16.384  23.000
  313 2.620 2.265  2.975 1.000 1.00000 2.620 1.000      0.410  23.000
  314 2.740 2.373  3.107 1.000 1.00000 2.740 1.000     40.141  23.000
  315 2.660 2.301  3.019 1.000 1.00000 2.660 1.000      6.921  23.000
  316 2.720 2.355  3.085 1.000 1.00000 2.720 1.000     19.683  23.000
  317 2.600 2.247  2.953 1.000 1.00000 2.600 1.000      3.437  23.000
  318 2.660 2.301  3.019 1.000 1.00000 2.660 1.000      5.313  23.000
  319 2.620 2.265  2.975 1.000 1.00000 2.620 1.000      0.651  23.000
  320 2.660 2.301  3.019 1.000 1.00000 2.660 1.000      7.715  23.000
  321 2.630 2.274  2.986 1.000 1.00000 2.630 1.000      2.196  23.000
  322 2.710 2.346  3.074 1.000 1.00000 2.710 1.000     19.723  23.000
  323 2.670 2.310  3.030 1.000 1.00000 2.670 1.000     11.738  23.000
  324 2.640 2.283  2.997 1.000 1.00000 2.640 1.000      0.809  23.000
  325 2.590 2.238  2.942 1.000 1.00000 2.590 1.000      0.804  23.000
  326 2.650 2.292  3.008 1.000 1.00000 2.650 1.000     12.188  23.000
  327 2.660 2.301  3.019 1.000 1.00000 2.660 1.000      1.622  23.000
  328 2.660 2.301  3.019 1.000 1.00000 2.660 1.000      4.990  23.000
  329 2.650 2.292  3.008 1.000 1.00000 2.650 1.000     19.758  23.000
  330 2.720 2.355  3.085 1.000 1.00000 2.720 1.000     43.204  23.000
  331 2.580 2.229  2.931 1.000 1.00000 2.580 1.000      0.519  23.000
  332 2.650 2.292  3.008 1.000 1.00000 2.650 1.000     11.561  23.000
  333 2.690 2.328  3.052 1.000 1.00000 2.690 1.000     23.394  23.000
  334 2.660 2.301  3.019 1.000 1.00000 2.660 1.000     17.942  23.000
  335 2.660 2.301  3.019 1.000 1.00000 2.660 1.000      3.173  23.000
  336 2.640 2.283  2.997 1.000 1.00000 2.640 1.000      0.390  23.000
  337 2.650 2.292  3.008 1.000 1.00000 2.650 1.000      1.889  23.000
  338 2.660 2.301  3.019 1.000 1.00000 2.660 1.000      1.396  23.000
  339 2.660 2.301  3.019 1.000 1.00000 2.660 1.000      8.732  23.000
  340 2.750 2.383  3.117 1.000 1.00000 2.750 1.000     36.610  23.000
  341 2.660 2.301  3.019 1.000 1.00000 2.660 1.000      7.908  23.000
  342 2.750 2.383  3.117 1.000 1.00000 2.750 1.000     51.493  23.000
  343 2.720 2.355  3.085 1.000 1.00000 2.720 1.000     21.567  23.000
  344 2.670 2.310  3.030 1.000 1.00000 2.670 1.000      3.128  23.000
  345 2.650 2.292  3.008 1.000 1.00000 2.650 1.000      1.632  23.000
  346 2.650 2.292  3.008 1.000 1.00000 2.650 1.000      4.466  23.000
  347 2.690 2.328  3.052 1.000 1.00000 2.690 1.000      3.130  23.000
  348 2.700 2.337  3.063 1.000 1.00000 2.700 1.000     15.655  23.000
  349 2.690 2.328  3.052 1.000 1.00000 2.690 1.000     10.195  23.000
  350 2.660 2.301  3.019 1.000 1.00000 2.660 1.000      3.621  23.000
  351 2.710 2.346  3.074 1.000 1.00000 2.710 1.000     17.181  23.000
  352 2.650 2.292  3.008 1.000 1.00000 2.650 1.000      2.243  23.000
  353 2.690 2.328  3.052 1.000 1.00000 2.690 1.000     11.129  23.000
  354 2.680 2.319  3.041 1.000 1.00000 2.680 1.000      4.253  23.000
  355 2.650 2.292  3.008 1.000 1.00000 2.650 1.000      2.091  23.000
  356 2.690 2.328  3.052 1.000 1.00000 2.690 1.000      4.401  23.000
  357 2.650 2.292  3.008 1.000 1.00000 2.650 1.000      1.575  23.000
  358 2.660 2.301  3.019 1.000 1.00000 2.660 1.000      6.672  23.000
  359 2.670 2.310  3.030 1.000 1.00000 2.670 1.000     11.860  23.000
  360 2.590 2.238  2.942 1.000 1.00000 2.590 1.000      1.658  23.000
  361 2.660 2.301  3.019 1.000 1.00000 2.660 1.000     19.359  23.000
  362 2.680 2.319  3.041 1.000 1.00000 2.680 1.000      9.381  23.000
  363 2.650 2.292  3.008 1.000 1.00000 2.650 1.000      3.446  23.000
  364 2.600 2.247  2.953 1.000 1.00000 2.600 1.000      0.227  23.000
  365 2.630 2.274  2.986 1.000 1.00000 2.630 1.000      1.500  23.000
  366 2.630 2.274  2.986 1.000 1.00000 2.630 1.000      0.967  23.000
  367 2.740 2.373  3.107 1.000 1.00000 2.740 1.000     24.939  23.000
  368 2.650 2.292  3.008 1.000 1.00000 2.650 1.000      3.733  23.000
  369 2.710 2.346  3.074 1.000 1.00000 2.710 1.000     27.624  23.000
  370 2.640 2.283  2.997 1.000 1.00000 2.640 1.000      0.435  23.000
  371 2.590 2.238  2.942 1.000 1.00000 2.590 1.000      1.158  23.000
  372 2.660 2.301  3.019 1.000 1.00000 2.660 1.000      6.193  23.000
  373 2.660 2.301  3.019 1.000 1.00000 2.660 1.000     10.690  23.000
  374 2.660 2.301  3.019 1.000 1.00000 2.660 1.000      3.848  23.000
  375 2.670 2.310  3.030 1.000 1.00000 2.670 1.000      8.084  23.000
  376 2.640 2.283  2.997 1.000 1.00000 2.640 1.000      0.408  23.000
  377 2.650 2.292  3.008 1.000 1.00000 2.650 1.000      2.351  23.000
  378 2.660 2.301  3.019 1.000 1.00000 2.660 1.000      5.636  23.000
  379 2.660 2.301  3.019 1.000 1.00000 2.660 1.000      6.394  23.000
  380 2.710 2.346  3.074 1.000 1.00000 2.710 1.000     23.732  23.000
  381 2.660 2.301  3.019 1.000 1.00000 2.660 1.000      8.754  23.000
  382 2.630 2.274  2.986 1.000 1.00000 2.630 1.000      1.191  23.000
  383 2.690 2.328  3.052 1.000 1.00000 2.690 1.000      5.200  23.000
  384 2.640 2.283  2.997 1.000 1.00000 2.640 1.000      0.775  23.000
  385 2.660 2.301  3.019 1.000 1.00000 2.660 1.000      3.595  23.000
  386 2.680 2.319  3.041 1.000 1.00000 2.680 1.000      3.440  23.000
  387 2.700 2.337  3.063 1.000 1.00000 2.700 1.000     18.915  23.000
  388 2.660 2.301  3.019 1.000 1.00000 2.660 1.000      7.464  23.000
  389 2.650 2.292  3.008 1.000 1.00000 2.650 1.000      5.788  23.000
  390 2.660 2.301  3.019 1.000 1.00000 2.660 1.000      8.662  23.000
  391 2.660 2.301  3.019 1.000 1.00000 2.660 1.000      3.887  23.000
  392 2.710 2.346  3.074 1.000 1.00000 2.710 1.000     23.719  23.000
  393 2.660 2.301  3.019 1.000 1.00000 2.660 1.000     10.466  23.000
  394 2.710 2.346  3.074 1.000 1.00000 2.710 1.000     13.750  23.000
  395 2.640 2.283  2.997 1.000 1.00000 2.640 1.000      2.765  23.000
  396 2.640 2.283  2.997 1.000 1.00000 2.640 1.000      5.240  23.000
  397 2.660 2.301  3.019 1.000 1.00000 2.660 1.000     10.252  23.000
  398 2.640 2.283  2.997 1.000 1.00000 2.640 1.000      0.459  23.000
  399 2.650 2.292  3.008 1.000 1.00000 2.650 1.000      0.717  23.000
  400 2.660 2.301  3.019 1.000 1.00000 2.660 1.000      2.571  23.000
  401 2.650 2.292  3.008 1.000 1.00000 2.650 1.000      4.489  23.000
  402 2.710 2.346  3.074 1.000 1.00000 2.710 1.000     10.799  23.000
  403 2.680 2.319  3.041 1.000 1.00000 2.680 1.000      2.648  23.000
  404 2.660 2.301  3.019 1.000 1.00000 2.660 1.000      8.757  23.000
  405 2.700 2.337  3.063 1.000 1.00000 2.700 1.000     19.368  23.000
  406 2.650 2.292  3.008 1.000 1.00000 2.650 1.000      2.533  23.000
  407 2.660 2.301  3.019 1.000 1.00000 2.660 1.000      2.963  23.000
  408 2.650 2.292  3.008 1.000 1.00000 2.650 1.000      8.398  23.000
  409 2.660 2.301  3.019 1.000 1.00000 2.660 1.000      0.822  23.000
  410 2.650 2.292  3.008 1.000 1.00000 2.650 1.000      6.076  23.000
  411 2.590 2.238  2.942 1.000 1.00000 2.590 1.000      1.396  23.000
  412 2.650 2.292  3.008 1.000 1.00000 2.650 1.000      9.493  23.000
  413 2.650 2.292  3.008 1.000 1.00000 2.650 1.000      3.756  23.000
  414 2.660 2.301  3.019 1.000 1.00000 2.660 1.000     12.355  23.000
  415 2.620 2.265  2.975 1.000 1.00000 2.620 1.000      1.851  23.000
  416 2.630 2.274  2.986 1.000 1.00000 2.630 1.000      3.947  23.000
  417 2.660 2.301  3.019 1.000 1.00000 2.660 1.000      5.782  23.000
  418 2.700 2.337  3.063 1.000 1.00000 2.700 1.000     27.521  23.000
  419 2.570 2.220  2.920 1.000 1.00000 2.570 1.000      0.055  23.000
  420 2.710 2.346  3.074 1.000 1.00000 2.710 1.000     16.527  23.000
  421 2.660 2.301  3.019 1.000 1.00000 2.660 1.000     13.255  23.000
  422 2.640 2.283  2.997 1.000 1.00000 2.640 1.000      0.359  23.000
  423 2.710 2.346  3.074 1.000 1.00000 2.710 1.000     26.756  23.000
  424 2.650 2.292  3.008 1.000 1.00000 2.650 1.000      1.500  23.000
  425 2.650 2.292  3.008 1.000 1.00000 2.650 1.000      1.596  23.000
  426 2.650 2.292  3.008 1.000 1.00000 2.650 1.000      5.903  23.000
  427 2.660 2.301  3.019 1.000 1.00000 2.660 1.000      9.608  23.000
  428 2.660 2.301  3.019 1.000 1.00000 2.660 1.000      3.484  23.000
  429 2.640 2.283  2.997 1.000 1.00000 2.640 1.000      0.941  23.000
  430 2.660 2.301  3.019 1.000 1.00000 2.660 1.000      6.271  23.000
  431 2.650 2.292  3.008 1.000 1.00000 2.650 1.000      5.373  23.000
  432 2.650 2.292  3.008 1.000 1.00000 2.650 1.000      1.084  23.000
  433 2.690 2.328  3.052 1.000 1.00000 2.690 1.000     15.274  23.000
  434 2.650 2.292  3.008 1.000 1.00000 2.650 1.000      4.581  23.000
  435 2.650 2.292  3.008 1.000 1.00000 2.650 1.000      4.869  23.000
  436 2.670 2.310  3.030 1.000 1.00000 2.670 1.000      5.226  23.000
  437 2.650 2.292  3.008 1.000 1.00000 2.650 1.000     10.013  23.000
  438 2.730 2.364  3.096 1.000 1.00000 2.730 1.000     19.923  23.000
  439 2.690 2.328  3.052 1.000 1.00000 2.690 1.000     11.468  23.000
  440 2.620 2.265  2.975 1.000 1.00000 2.620 1.000      0.299  23.000
  441 2.660 2.301  3.019 1.000 1.00000 2.660 1.000      9.096  23.000
  442 2.650 2.292  3.008 1.000 1.00000 2.650 1.000      3.461  23.000
  443 2.730 2.364  3.096 1.000 1.00000 2.730 1.000     20.555  23.000
  444 2.650 2.292  3.008 1.000 1.00000 2.650 1.000      0.509  23.000
  445 2.650 2.292  3.008 1.000 1.00000 2.650 1.000      8.745  23.000
  446 2.650 2.292  3.008 1.000 1.00000 2.650 1.000      4.317  23.000
  447 2.660 2.301  3.019 1.000 1.00000 2.660 1.000      2.196  23.000
  448 2.680 2.319  3.041 1.000 1.00000 2.680 1.000     12.735  23.000
  449 2.650 2.292  3.008 1.000 1.00000 2.650 1.000      0.938  23.000
  450 2.670 2.310  3.030 1.000 1.00000 2.670 1.000      5.578  23.000
  451 2.650 2.292  3.008 1.000 1.00000 2.650 1.000      4.975  23.000
  452 2.680 2.319  3.041 1.000 1.00000 2.680 1.000      9.752  23.000
  453 2.650 2.292  3.008 1.000 1.00000 2.650 1.000      4.493  23.000
  454 2.680 2.319  3.041 1.000 1.00000 2.680 1.000     11.183  23.000
  455 2.600 2.247  2.953 1.000 1.00000 2.600 1.000      3.119  23.000
  456 2.670 2.310  3.030 1.000 1.00000 2.670 1.000     22.270  23.000
  457 2.650 2.292  3.008 1.000 1.00000 2.650 1.000      0.863  23.000
  458 2.710 2.346  3.074 1.000 1.00000 2.710 1.000     21.577  23.000
  459 2.670 2.310  3.030 1.000 1.00000 2.670 1.000     16.079  23.000
  460 2.590 2.238  2.942 1.000 1.00000 2.590 1.000      1.576  23.000
  461 2.660 2.301  3.019 1.000 1.00000 2.660 1.000      3.705  23.000
  462 2.650 2.292  3.008 1.000 1.00000 2.650 1.000      2.002  23.000
  463 2.650 2.292  3.008 1.000 1.00000 2.650 1.000      5.403  23.000
  464 2.680 2.319  3.041 1.000 1.00000 2.680 1.000     21.383  23.000
  465 2.690 2.328  3.052 1.000 1.00000 2.690 1.000      8.904  23.000
  466 2.670 2.310  3.030 1.000 1.00000 2.670 1.000      7.180  23.000
  467 2.710 2.346  3.074 1.000 1.00000 2.710 1.000      7.232  23.000
  468 2.650 2.292  3.008 1.000 1.00000 2.650 1.000      2.516  23.000
  469 2.650 2.292  3.008 1.000 1.00000 2.650 1.000      0.671  23.000
  470 2.690 2.328  3.052 1.000 1.00000 2.690 1.000     14.976  23.000
  471 2.630 2.274  2.986 1.000 1.00000 2.630 1.000      0.412  23.000
  472 2.700 2.337  3.063 1.000 1.00000 2.700 1.000     13.142  23.000
  473 2.660 2.301  3.019 1.000 1.00000 2.660 1.000      9.500  23.000
  474 2.710 2.346  3.074 1.000 1.00000 2.710 1.000     22.292  23.000
  475 2.640 2.283  2.997 1.000 1.00000 2.640 1.000      0.543  23.000
  476 2.650 2.292  3.008 1.000 1.00000 2.650 1.000      4.640  23.000
  477 2.650 2.292  3.008 1.000 1.00000 2.650 1.000      2.753  23.000
  478 2.620 2.265  2.975 1.000 1.00000 2.620 1.000      0.229  23.000
  479 2.710 2.346  3.074 1.000 1.00000 2.710 1.000     14.892  23.000
  480 2.660 2.301  3.019 1.000 1.00000 2.660 1.000      1.302  23.000
  481 2.650 2.292  3.008 1.000 1.00000 2.650 1.000      2.049  23.000
  482 2.650 2.292  3.008 1.000 1.00000 2.650 1.000      3.917  23.000
  483 2.690 2.328  3.052 1.000 1.00000 2.690 1.000      6.637  23.000
  484 2.620 2.265  2.975 1.000 1.00000 2.620 1.000      0.699  23.000
  485 2.660 2.301  3.019 1.000 1.00000 2.660 1.000     15.113  23.000
  486 2.630 2.274  2.986 1.000 1.00000 2.630 1.000      0.559  23.000
  487 2.690 2.328  3.052 1.000 1.00000 2.690 1.000      9.327  23.000
  488 2.650 2.292  3.008 1.000 1.00000 2.650 1.000      3.255  23.000
  489 2.650 2.292  3.008 1.000 1.00000 2.650 1.000     12.310  23.000
  490 2.650 2.292  3.008 1.000 1.00000 2.650 1.000      4.025  23.000
  491 2.650 2.292  3.008 1.000 1.00000 2.650 1.000      1.527  23.000
  492 2.640 2.283  2.997 1.000 1.00000 2.640 1.000      0.842  23.000
  493 2.650 2.292  3.008 1.000 1.00000 2.650 1.000      2.617  23.000
  494 2.730 2.364  3.096 1.000 1.00000 2.730 1.000     22.291  23.000
  495 2.650 2.292  3.008 1.000 1.00000 2.650 1.000     10.031  23.000
  496 2.690 2.328  3.052 1.000 1.00000 2.690 1.000     16.390  23.000
  497 2.750 2.383  3.117 1.000 1.00000 2.750 1.000     42.513  23.000
  498 2.650 2.292  3.008 1.000 1.00000 2.650 1.000      2.711  23.000
  499 2.640 2.283  2.997 1.000 1.00000 2.640 1.000      0.573  23.000
  500 2.620 2.265  2.975 1.000 1.00000 2.620 1.000      0.229  23.000
  501 2.660 2.301  3.019 1.000 1.00000 2.660 1.000     19.414  23.000
  502 2.580 2.229  2.931 1.000 1.00000 2.580 1.000      0.243  23.000
  503 2.650 2.292  3.008 1.000 1.00000 2.650 1.000      3.258  23.000
  504 2.630 2.274  2.986 1.000 1.00000 2.630 1.000      0.524  23.000
  505 2.650 2.292  3.008 1.000 1.00000 2.650 1.000      4.904  23.000
  506 2.650 2.292  3.008 1.000 1.00000 2.650 1.000      4.207  23.000
  507 2.660 2.301  3.019 1.000 1.00000 2.660 1.000      1.593  23.000
  508 2.760 2.392  3.128 1.000 1.00000 2.760 1.000     66.777  23.000
  509 2.660 2.301  3.019 1.000 1.00000 2.660 1.000      7.053  23.000
  510 2.690 2.328  3.052 1.000 1.00000 2.690 1.000     22.686  23.000
  511 2.690 2.328  3.052 1.000 1.00000 2.690 1.000      7.349  23.000
  512 2.670 2.310  3.030 1.000 1.00000 2.670 1.000      9.744  23.000
  513 2.660 2.301  3.019 1.000 1.00000 2.660 1.000     11.562  23.000
  514 2.670 2.310  3.030 1.000 1.00000 2.670 1.000      1.464  23.000
  515 2.670 2.310  3.030 1.000 1.00000 2.670 1.000      7.787  23.000
  516 2.630 2.274  2.986 1.000 1.00000 2.630 1.000      6.897  23.000
  517 2.700 2.337  3.063 1.000 1.00000 2.700 1.000     16.563  23.000
  518 2.660 2.301  3.019 1.000 1.00000 2.660 1.000      2.502  23.000
  519 2.650 2.292  3.008 1.000 1.00000 2.650 1.000      5.220  23.000
  520 2.600 2.247  2.953 1.000 1.00000 2.600 1.000      1.015  23.000
  521 2.660 2.301  3.019 1.000 1.00000 2.660 1.000      4.219  23.000
  522 2.660 2.301  3.019 1.000 1.00000 2.660 1.000     12.177  23.000
  523 2.650 2.292  3.008 1.000 1.00000 2.650 1.000      1.929  23.000
  524 2.640 2.283  2.997 1.000 1.00000 2.640 1.000      1.277  23.000
  525 2.650 2.292  3.008 1.000 1.00000 2.650 1.000      0.513  23.000
  526 2.650 2.292  3.008 1.000 1.00000 2.650 1.000      9.820  23.000
  527 2.720 2.355  3.085 1.000 1.00000 2.720 1.000     38.267  23.000
  528 2.620 2.265  2.975 1.000 1.00000 2.620 1.000      3.343  23.000
  529 2.680 2.319  3.041 1.000 1.00000 2.680 1.000     15.938  23.000
  530 2.650 2.292  3.008 1.000 1.00000 2.650 1.000      3.819  23.000
  531 2.620 2.265  2.975 1.000 1.00000 2.620 1.000      0.213  23.000
  532 2.660 2.301  3.019 1.000 1.00000 2.660 1.000      1.131  23.000
  533 2.750 2.383  3.117 1.000 1.00000 2.750 1.000     37.661  23.000
  534 2.660 2.301  3.019 1.000 1.00000 2.660 1.000      7.931  23.000
  535 2.680 2.319  3.041 1.000 1.00000 2.680 1.000      4.232  23.000
  536 2.680 2.319  3.041 1.000 1.00000 2.680 1.000      5.832  23.000
  537 2.650 2.292  3.008 1.000 1.00000 2.650 1.000      3.499  23.000
  538 2.680 2.319  3.041 1.000 1.00000 2.680 1.000     15.550  23.000
  539 2.650 2.292  3.008 1.000 1.00000 2.650 1.000      2.396  23.000
  540 2.620 2.265  2.975 1.000 1.00000 2.620 1.000      1.843  23.000
  541 2.710 2.346  3.074 1.000 1.00000 2.710 1.000     14.988  23.000
  542 2.650 2.292  3.008 1.000 1.00000 2.650 1.000      7.724  23.000
  543 2.670 2.310  3.030 1.000 1.00000 2.670 1.000     19.475  23.000
  544 2.650 2.292  3.008 1.000 1.00000 2.650 1.000      7.224  23.000
  545 2.590 2.238  2.942 1.000 1.00000 2.590 1.000      0.247  23.000
  546 2.740 2.373  3.107 1.000 1.00000 2.740 1.000     27.493  23.000
  547 2.630 2.274  2.986 1.000 1.00000 2.630 1.000      1.041  23.000
  548 2.650 2.292  3.008 1.000 1.00000 2.650 1.000      0.504  23.000
  549 2.650 2.292  3.008 1.000 1.00000 2.650 1.000      8.127  23.000
  550 2.660 2.301  3.019 1.000 1.00000 2.660 1.000      0.920  23.000
  551 2.650 2.292  3.008 1.000 1.00000 2.650 1.000      2.344  23.000
  552 2.650 2.292  3.008 1.000 1.00000 2.650 1.000      4.739  23.000
  553 2.640 2.283  2.997 1.000 1.00000 2.640 1.000      4.506  23.000
  554 2.660 2.301  3.019 1.000 1.00000 2.660 1.000      3.345  23.000
  555 2.610 2.256  2.964 1.000 1.00000 2.610 1.000      3.358  23.000
  556 2.690 2.328  3.052 1.000 1.00000 2.690 1.000     20.364  23.000
  557 2.650 2.292  3.008 1.000 1.00000 2.650 1.000     10.219  23.000
  558 2.660 2.301  3.019 1.000 1.00000 2.660 1.000     10.546  23.000
  559 2.660 2.301  3.019 1.000 1.00000 2.660 1.000      7.930  23.000
  560 2.650 2.292  3.008 1.000 1.00000 2.650 1.000      2.421  23.000
  561 2.660 2.301  3.019 1.000 1.00000 2.660 1.000      9.029  23.000
  562 2.640 2.283  2.997 1.000 1.00000 2.640 1.000      1.199  23.000
  563 2.660 2.301  3.019 1.000 1.00000 2.660 1.000      5.117  23.000
  564 2.650 2.292  3.008 1.000 1.00000 2.650 1.000      5.811  23.000
  565 2.710 2.346  3.074 1.000 1.00000 2.710 1.000     28.411  23.000
  566 2.650 2.292  3.008 1.000 1.00000 2.650 1.000      0.854  23.000
  567 2.680 2.319  3.041 1.000 1.00000 2.680 1.000     15.764  23.000
  568 2.670 2.310  3.030 1.000 1.00000 2.670 1.000      6.673  23.000
  569 2.750 2.383  3.117 1.000 1.00000 2.750 1.000     37.896  23.000
  570 2.660 2.301  3.019 1.000 1.00000 2.660 1.000      7.328  23.000
  571 2.660 2.301  3.019 1.000 1.00000 2.660 1.000      7.504  23.000
  572 2.700 2.337  3.063 1.000 1.00000 2.700 1.000     21.951  23.000
  573 2.630 2.274  2.986 1.000 1.00000 2.630 1.000      0.551  23.000
  574 2.660 2.301  3.019 1.000 1.00000 2.660 1.000      4.882  23.000
  575 2.750 2.383  3.117 1.000 1.00000 2.750 1.000     52.950  23.000
  576 2.710 2.346  3.074 1.000 1.00000 2.710 1.000     35.542  23.000
  577 2.650 2.292  3.008 1.000 1.00000 2.650 1.000      8.963  23.000
  578 2.700 2.337  3.063 1.000 1.00000 2.700 1.000     17.290  23.000
  579 2.660 2.301  3.019 1.000 1.00000 2.660 1.000      3.900  23.000
  580 2.650 2.292  3.008 1.000 1.00000 2.650 1.000      5.286  23.000
  581 2.660 2.301  3.019 1.000 1.00000 2.660 1.000      3.624  23.000
  582 2.650 2.292  3.008 1.000 1.00000 2.650 1.000      1.511  23.000
  583 2.660 2.301  3.019 1.000 1.00000 2.660 1.000      2.524  23.000
  584 2.650 2.292  3.008 1.000 1.00000 2.650 1.000      8.327  23.000
  585 2.640 2.283  2.997 1.000 1.00000 2.640 1.000      0.384  23.000
  586 2.660 2.301  3.019 1.000 1.00000 2.660 1.000      2.441  23.000
  587 2.650 2.292  3.008 1.000 1.00000 2.650 1.000      3.298  23.000
  588 2.650 2.292  3.008 1.000 1.00000 2.650 1.000     10.288  23.000
  589 2.650 2.292  3.008 1.000 1.00000 2.650 1.000      4.793  23.000
  590 2.610 2.256  2.964 1.000 1.00000 2.610 1.000      1.307  23.000
  591 2.650 2.292  3.008 1.000 1.00000 2.650 1.000      6.085  23.000
  592 2.730 2.364  3.096 1.000 1.00000 2.730 1.000     24.037  23.000
  593 2.690 2.328  3.052 1.000 1.00000 2.690 1.000     11.956  23.000
  594 2.660 2.301  3.019 1.000 1.00000 2.660 1.000     11.797  23.000
  595 2.650 2.292  3.008 1.000 1.00000 2.650 1.000      7.672  23.000
  596 2.600 2.247  2.953 1.000 1.00000 2.600 1.000      0.356  23.000
  597 2.630 2.274  2.986 1.000 1.00000 2.630 1.000      1.322  23.000
  598 2.650 2.292  3.008 1.000 1.00000 2.650 1.000      2.811  23.000
  599 2.650 2.292  3.008 1.000 1.00000 2.650 1.000      4.833  23.000
  600 2.620 2.265  2.975 1.000 1.00000 2.620 1.000      0.743  23.000
  601 2.660 2.301  3.019 1.000 1.00000 2.660 1.000      1.535  23.000
  602 2.670 2.310  3.030 1.000 1.00000 2.670 1.000      7.339  23.000
  603 2.700 2.337  3.063 1.000 1.00000 2.700 1.000      4.214  23.000
  604 2.700 2.337  3.063 1.000 1.00000 2.700 1.000     20.252  23.000
  605 2.620 2.265  2.975 1.000 1.00000 2.620 1.000      0.995  23.000
  606 2.640 2.283  2.997 1.000 1.00000 2.640 1.000      2.418  23.000
  607 2.650 2.292  3.008 1.000 1.00000 2.650 1.000      7.194  23.000
  608 2.670 2.310  3.030 1.000 1.00000 2.670 1.000      6.641  23.000
  609 2.620 2.265  2.975 1.000 1.00000 2.620 1.000      1.765  23.000
  610 2.650 2.292  3.008 1.000 1.00000 2.650 1.000      5.924  23.000
  611 2.650 2.292  3.008 1.000 1.00000 2.650 1.000      5.651  23.000
  612 2.630 2.274  2.986 1.000 1.00000 2.630 1.000      2.085  23.000
  613 2.650 2.292  3.008 1.000 1.00000 2.650 1.000      1.017  23.000
  614 2.640 2.283  2.997 1.000 1.00000 2.640 1.000      1.061  23.000
  615 2.720 2.355  3.085 1.000 1.00000 2.720 1.000     20.967  23.000
  616 2.770 2.401  3.139 1.000 1.00000 2.770 1.000     71.383  23.000
  617 2.660 2.301  3.019 1.000 1.00000 2.660 1.000      9.793  23.000
  618 2.730 2.364  3.096 1.000 1.00000 2.730 1.000     22.019  23.000
  619 2.680 2.319  3.041 1.000 1.00000 2.680 1.000      8.209  23.000
  620 2.660 2.301  3.019 1.000 1.00000 2.660 1.000     11.629  23.000
  621 2.670 2.310  3.030 1.000 1.00000 2.670 1.000      7.846  23.000
  622 2.720 2.355  3.085 1.000 1.00000 2.720 1.000     21.105  23.000
  623 2.610 2.256  2.964 1.000 1.00000 2.610 1.000      0.181  23.000
  624 2.670 2.310  3.030 1.000 1.00000 2.670 1.000      3.570  23.000
  625 2.650 2.292  3.008 1.000 1.00000 2.650 1.000      1.782  23.000
  626 2.720 2.355  3.085 1.000 1.00000 2.720 1.000     30.115  23.000
  627 2.610 2.256  2.964 1.000 1.00000 2.610 1.000      0.172  23.000
  628 2.610 2.256  2.964 1.000 1.00000 2.610 1.000      0.245  23.000
  629 2.640 2.283  2.997 1.000 1.00000 2.640 1.000      0.465  23.000
  630 2.650 2.292  3.008 1.000 1.00000 2.650 1.000      2.488  23.000
  631 2.760 2.392  3.128 1.000 1.00000 2.760 1.000     43.548  23.000
  632 2.710 2.346  3.074 1.000 1.00000 2.710 1.000      8.779  23.000
  633 2.660 2.301  3.019 1.000 1.00000 2.660 1.000      0.715  23.000
  634 2.650 2.292  3.008 1.000 1.00000 2.650 1.000      2.393  23.000
  635 2.750 2.383  3.117 1.000 1.00000 2.750 1.000     42.428  23.000
  636 2.650 2.292  3.008 1.000 1.00000 2.650 1.000      1.499  23.000
  637 2.650 2.292  3.008 1.000 1.00000 2.650 1.000      2.155  23.000
  638 2.650 2.292  3.008 1.000 1.00000 2.650 1.000      0.708  23.000
  639 2.650 2.292  3.008 1.000 1.00000 2.650 1.000      2.814  23.000
  640 2.650 2.292  3.008 1.000 1.00000 2.650 1.000      0.684  23.000
  641 2.710 2.346  3.074 1.000 1.00000 2.710 1.000     14.317  23.000
  642 2.650 2.292  3.008 1.000 1.00000 2.650 1.000      4.343  23.000
  643 2.650 2.292  3.008 1.000 1.00000 2.650 1.000      2.734  23.000
  644 2.680 2.319  3.041 1.000 1.00000 2.680 1.000      6.727  23.000
  645 2.680 2.319  3.041 1.000 1.00000 2.680 1.000     23.546  23.000
  646 2.690 2.328  3.052 1.000 1.00000 2.690 1.000      6.894  23.000
  647 2.650 2.292  3.008 1.000 1.00000 2.650 1.000      2.626  23.000
  648 2.660 2.301  3.019 1.000 1.00000 2.660 1.000      8.306  23.000
  649 2.650 2.292  3.008 1.000 1.00000 2.650 1.000      0.870  23.000
  650 2.660 2.301  3.019 1.000 1.00000 2.660 1.000      6.347  23.000
  651 2.690 2.328  3.052 1.000 1.00000 2.690 1.000      3.487  23.000
  652 2.650 2.292  3.008 1.000 1.00000 2.650 1.000     12.215  23.000
  653 2.660 2.301  3.019 1.000 1.00000 2.660 1.000      3.693  23.000
  654 2.670 2.310  3.030 1.000 1.00000 2.670 1.000     11.072  23.000
  655 2.710 2.346  3.074 1.000 1.00000 2.710 1.000     15.896  23.000
  656 2.680 2.319  3.041 1.000 1.00000 2.680 1.000      8.473  23.000
  657 2.660 2.301  3.019 1.000 1.00000 2.660 1.000      3.051  23.000
  658 2.720 2.355  3.085 1.000 1.00000 2.720 1.000     12.528  23.000
  659 2.650 2.292  3.008 1.000 1.00000 2.650 1.000      4.869  23.000
  660 2.650 2.292  3.008 1.000 1.00000 2.650 1.000      8.564  23.000
  661 2.650 2.292  3.008 1.000 1.00000 2.650 1.000      6.933  23.000
  662 2.650 2.292  3.008 1.000 1.00000 2.650 1.000      2.279  23.000
  663 2.670 2.310  3.030 1.000 1.00000 2.670 1.000      9.728  23.000
  664 2.610 2.256  2.964 1.000 1.00000 2.610 1.000      0.999  23.000
  665 2.650 2.292  3.008 1.000 1.00000 2.650 1.000      2.678  23.000
  666 2.740 2.373  3.107 1.000 1.00000 2.740 1.000     53.764  23.000
  667 2.610 2.256  2.964 1.000 1.00000 2.610 1.000      0.403  23.000
  668 2.730 2.364  3.096 1.000 1.00000 2.730 1.000     11.078  23.000
  669 2.650 2.292  3.008 1.000 1.00000 2.650 1.000      1.761  23.000
  670 2.650 2.292  3.008 1.000 1.00000 2.650 1.000      6.190  23.000
  671 2.660 2.301  3.019 1.000 1.00000 2.660 1.000      4.047  23.000
  672 2.630 2.274  2.986 1.000 1.00000 2.630 1.000      0.399  23.000
  673 2.650 2.292  3.008 1.000 1.00000 2.650 1.000     15.611  23.000
  674 2.640 2.283  2.997 1.000 1.00000 2.640 1.000      1.491  23.000
  675 2.640 2.283  2.997 1.000 1.00000 2.640 1.000      0.282  23.000
  676 2.670 2.310  3.030 1.000 1.00000 2.670 1.000      1.834  23.000
  677 2.660 2.301  3.019 1.000 1.00000 2.660 1.000      8.564  23.000
  678 2.650 2.292  3.008 1.000 1.00000 2.650 1.000      2.534  23.000
  679 2.650 2.292  3.008 1.000 1.00000 2.650 1.000      7.365  23.000
  680 2.660 2.301  3.019 1.000 1.00000 2.660 1.000     12.065  23.000
  681 2.660 2.301  3.019 1.000 1.00000 2.660 1.000      7.497  23.000
  682 2.580 2.229  2.931 1.000 1.00000 2.580 1.000      9.777  23.000
  683 2.630 2.274  2.986 1.000 1.00000 2.630 1.000      0.407  23.000
  684 2.650 2.292  3.008 1.000 1.00000 2.650 1.000      0.715  23.000
  685 2.680 2.319  3.041 1.000 1.00000 2.680 1.000      9.453  23.000
  686 2.650 2.292  3.008 1.000 1.00000 2.650 1.000      0.732  23.000
  687 2.650 2.292  3.008 1.000 1.00000 2.650 1.000      1.760  23.000
  688 2.720 2.355  3.085 1.000 1.00000 2.720 1.000     16.031  23.000
  689 2.750 2.383  3.117 1.000 1.00000 2.750 1.000     38.348  23.000
  690 2.670 2.310  3.030 1.000 1.00000 2.670 1.000      3.334  23.000
  691 2.630 2.274  2.986 1.000 1.00000 2.630 1.000      1.785  23.000
  692 2.630 2.274  2.986 1.000 1.00000 2.630 1.000      1.145  23.000
  693 2.650 2.292  3.008 1.000 1.00000 2.650 1.000      0.858  23.000
  694 2.650 2.292  3.008 1.000 1.00000 2.650 1.000      4.285  23.000
  695 2.660 2.301  3.019 1.000 1.00000 2.660 1.000      5.623  23.000
  696 2.690 2.328  3.052 1.000 1.00000 2.690 1.000     12.480  23.000
  697 2.620 2.265  2.975 1.000 1.00000 2.620 1.000      0.480  23.000
  698 2.620 2.265  2.975 1.000 1.00000 2.620 1.000      1.422  23.000
  699 2.680 2.319  3.041 1.000 1.00000 2.680 1.000      8.627  23.000
  700 2.640 2.283  2.997 1.000 1.00000 2.640 1.000      0.515  23.000
  701 2.660 2.301  3.019 1.000 1.00000 2.660 1.000     12.863  23.000
  702 2.680 2.319  3.041 1.000 1.00000 2.680 1.000      5.000  23.000
  703 2.650 2.292  3.008 1.000 1.00000 2.650 1.000     13.024  23.000
  704 2.720 2.355  3.085 1.000 1.00000 2.720 1.000     31.117  23.000
  705 2.720 2.355  3.085 1.000 1.00000 2.720 1.000     13.974  23.000
  706 2.650 2.292  3.008 1.000 1.00000 2.650 1.000      7.034  23.000
  707 2.610 2.256  2.964 1.000 1.00000 2.610 1.000      3.011  23.000
  708 2.650 2.292  3.008 1.000 1.00000 2.650 1.000      1.360  23.000
  709 2.660 2.301  3.019 1.000 1.00000 2.660 1.000      1.637  23.000
  710 2.670 2.310  3.030 1.000 1.00000 2.670 1.000     11.217  23.000
  711 2.650 2.292  3.008 1.000 1.00000 2.650 1.000      1.131  23.000
  712 2.570 2.220  2.920 1.000 1.00000 2.570 1.000      1.056  23.000
  713 2.670 2.310  3.030 1.000 1.00000 2.670 1.000     13.304  23.000
  714 2.650 2.292  3.008 1.000 1.00000 2.650 1.000      1.468  23.000
  715 2.670 2.310  3.030 1.000 1.00000 2.670 1.000      7.050  23.000
  716 2.660 2.301  3.019 1.000 1.00000 2.660 1.000      2.884  23.000
  717 2.690 2.328  3.052 1.000 1.00000 2.690 1.000     11.767  23.000
  718 2.620 2.265  2.975 1.000 1.00000 2.620 1.000      2.206  23.000
  719 2.660 2.301  3.019 1.000 1.00000 2.660 1.000      1.780  23.000
  720 2.660 2.301  3.019 1.000 1.00000 2.660 1.000      8.848  23.000
  721 2.750 2.383  3.117 1.000 1.00000 2.750 1.000     18.938  23.000
  722 2.660 2.301  3.019 1.000 1.00000 2.660 1.000      7.098  23.000
  723 2.690 2.328  3.052 1.000 1.00000 2.690 1.000     18.910  23.000
  724 2.660 2.301  3.019 1.000 1.00000 2.660 1.000     11.757  23.000
  725 2.670 2.310  3.030 1.000 1.00000 2.670 1.000      2.402  23.000
  726 2.700 2.337  3.063 1.000 1.00000 2.700 1.000     10.271  23.000
  727 2.660 2.301  3.019 1.000 1.00000 2.660 1.000      1.886  23.000
  728 2.650 2.292  3.008 1.000 1.00000 2.650 1.000      4.733  23.000
  729 2.650 2.292  3.008 1.000 1.00000 2.650 1.000      0.627  23.000
  730 2.670 2.310  3.030 1.000 1.00000 2.670 1.000     19.020  23.000
  731 2.660 2.301  3.019 1.000 1.00000 2.660 1.000      9.961  23.000
  732 2.650 2.292  3.008 1.000 1.00000 2.650 1.000      8.701  23.000
  733 2.660 2.301  3.019 1.000 1.00000 2.660 1.000     11.274  23.000
  734 2.680 2.319  3.041 1.000 1.00000 2.680 1.000      5.924  23.000
  735 2.740 2.373  3.107 1.000 1.00000 2.740 1.000     24.712  23.000
  736 2.630 2.274  2.986 1.000 1.00000 2.630 1.000      1.514  23.000
  737 2.620 2.265  2.975 1.000 1.00000 2.620 1.000      0.283  23.000
  738 2.660 2.301  3.019 1.000 1.00000 2.660 1.000      0.851  23.000
  739 2.730 2.364  3.096 1.000 1.00000 2.730 1.000     27.166  23.000
  740 2.650 2.292  3.008 1.000 1.00000 2.650 1.000      9.111  23.000
  741 2.630 2.274  2.986 1.000 1.00000 2.630 1.000      0.179  23.000
  742 2.650 2.292  3.008 1.000 1.00000 2.650 1.000      0.945  23.000
  743 2.700 2.337  3.063 1.000 1.00000 2.700 1.000     22.463  23.000
  744 2.630 2.274  2.986 1.000 1.00000 2.630 1.000      0.348  23.000
  745 2.660 2.301  3.019 1.000 1.00000 2.660 1.000     11.702  23.000
  746 2.750 2.383  3.117 1.000 1.00000 2.750 1.000     37.772  23.000
  747 2.670 2.310  3.030 1.000 1.00000 2.670 1.000      2.405  23.000
  748 2.660 2.301  3.019 1.000 1.00000 2.660 1.000      9.312  23.000
  749 2.690 2.328  3.052 1.000 1.00000 2.690 1.000     23.507  23.000
  750 2.660 2.301  3.019 1.000 1.00000 2.660 1.000      8.182  23.000
  751 2.660 2.301  3.019 1.000 1.00000 2.660 1.000      4.631  23.000
  752 2.670 2.310  3.030 1.000 1.00000 2.670 1.000      1.792  23.000
  753 2.730 2.364  3.096 1.000 1.00000 2.730 1.000     40.241  23.000
  754 2.660 2.301  3.019 1.000 1.00000 2.660 1.000      6.558  23.000
  755 2.690 2.328  3.052 1.000 1.00000 2.690 1.000      9.748  23.000
  756 2.600 2.247  2.953 1.000 1.00000 2.600 1.000      0.921  23.000
  757 2.610 2.256  2.964 1.000 1.00000 2.610 1.000      0.477  23.000
  758 2.660 2.301  3.019 1.000 1.00000 2.660 1.000     10.236  23.000
  759 2.720 2.355  3.085 1.000 1.00000 2.720 1.000     36.038  23.000
  760 2.660 2.301  3.019 1.000 1.00000 2.660 1.000      2.895  23.000
  761 2.630 2.274  2.986 1.000 1.00000 2.630 1.000      1.500  23.000
  762 2.660 2.301  3.019 1.000 1.00000 2.660 1.000     13.205  23.000
  763 2.700 2.337  3.063 1.000 1.00000 2.700 1.000     22.662  23.000
  764 2.580 2.229  2.931 1.000 1.00000 2.580 1.000      0.097  23.000
  765 2.670 2.310  3.030 1.000 1.00000 2.670 1.000      4.548  23.000
  766 2.700 2.337  3.063 1.000 1.00000 2.700 1.000     14.795  23.000
  767 2.660 2.301  3.019 1.000 1.00000 2.660 1.000     11.726  23.000
  768 2.670 2.310  3.030 1.000 1.00000 2.670 1.000      6.915  23.000
  769 2.680 2.319  3.041 1.000 1.00000 2.680 1.000      9.587  23.000
  770 2.650 2.292  3.008 1.000 1.00000 2.650 1.000      2.322  23.000
  771 2.670 2.310  3.030 1.000 1.00000 2.670 1.000      3.393  23.000
  772 2.660 2.301  3.019 1.000 1.00000 2.660 1.000     15.448  23.000
  773 2.650 2.292  3.008 1.000 1.00000 2.650 1.000      8.844  23.000
  774 2.690 2.328  3.052 1.000 1.00000 2.690 1.000     10.454  23.000
  775 2.680 2.319  3.041 1.000 1.00000 2.680 1.000      1.407  23.000
  776 2.660 2.301  3.019 1.000 1.00000 2.660 1.000      5.450  23.000
  777 2.760 2.392  3.128 1.000 1.00000 2.760 1.000     47.282  23.000
  778 2.650 2.292  3.008 1.000 1.00000 2.650 1.000      3.937  23.000
  779 2.630 2.274  2.986 1.000 1.00000 2.630 1.000      3.841  23.000
  780 2.710 2.346  3.074 1.000 1.00000 2.710 1.000     11.876  23.000
  781 2.640 2.283  2.997 1.000 1.00000 2.640 1.000      2.005  23.000
  782 2.700 2.337  3.063 1.000 1.00000 2.700 1.000     16.517  23.000
  783 2.670 2.310  3.030 1.000 1.00000 2.670 1.000     14.025  23.000
  784 2.640 2.283  2.997 1.000 1.00000 2.640 1.000      0.995  23.000
  785 2.650 2.292  3.008 1.000 1.00000 2.650 1.000      1.437  23.000
  786 2.650 2.292  3.008 1.000 1.00000 2.650 1.000      5.878  23.000
  787 2.680 2.319  3.041 1.000 1.00000 2.680 1.000      3.018  23.000
  788 2.670 2.310  3.030 1.000 1.00000 2.670 1.000     16.566  23.000
  789 2.650 2.292  3.008 1.000 1.00000 2.650 1.000      1.048  23.000
  790 2.660 2.301  3.019 1.000 1.00000 2.660 1.000      7.662  23.000
  791 2.650 2.292  3.008 1.000 1.00000 2.650 1.000      3.289  23.000
  792 2.660 2.301  3.019 1.000 1.00000 2.660 1.000     10.690  23.000
  793 2.650 2.292  3.008 1.000 1.00000 2.650 1.000      2.291  23.000
  794 2.700 2.337  3.063 1.000 1.00000 2.700 1.000     25.243  23.000
  795 2.650 2.292  3.008 1.000 1.00000 2.650 1.000      3.017  23.000
  796 2.650 2.292  3.008 1.000 1.00000 2.650 1.000      5.453  23.000
  797 2.660 2.301  3.019 1.000 1.00000 2.660 1.000      6.786  23.000
  798 2.660 2.301  3.019 1.000 1.00000 2.660 1.000      6.884  23.000
  799 2.680 2.319  3.041 1.000 1.00000 2.680 1.000      1.274  23.000
  800 2.680 2.319  3.041 1.000 1.00000 2.680 1.000     16.130  23.000
  801 2.650 2.292  3.008 1.000 1.00000 2.650 1.000      0.684  23.000
  802 2.660 2.301  3.019 1.000 1.00000 2.660 1.000      1.954  23.000
  803 2.640 2.283  2.997 1.000 1.00000 2.640 1.000      0.782  23.000
  804 2.620 2.265  2.975 1.000 1.00000 2.620 1.000      1.774  23.000
  805 2.620 2.265  2.975 1.000 1.00000 2.620 1.000      1.491  23.000
  806 2.730 2.364  3.096 1.000 1.00000 2.730 1.000     28.400  23.000
  807 2.630 2.274  2.986 1.000 1.00000 2.630 1.000      0.398  23.000
  808 2.620 2.265  2.975 1.000 1.00000 2.620 1.000      3.140  23.000
  809 2.630 2.274  2.986 1.000 1.00000 2.630 1.000      0.968  23.000
  810 2.630 2.274  2.986 1.000 1.00000 2.630 1.000      1.310  23.000
  811 2.650 2.292  3.008 1.000 1.00000 2.650 1.000      7.790  23.000
  812 2.700 2.337  3.063 1.000 1.00000 2.700 1.000     13.647  23.000
  813 2.670 2.310  3.030 1.000 1.00000 2.670 1.000      4.690  23.000
  814 2.660 2.301  3.019 1.000 1.00000 2.660 1.000     11.346  23.000
  815 2.650 2.292  3.008 1.000 1.00000 2.650 1.000      8.041  23.000
  816 2.650 2.292  3.008 1.000 1.00000 2.650 1.000      5.359  23.000
  817 2.660 2.301  3.019 1.000 1.00000 2.660 1.000      6.761  23.000
  818 2.650 2.292  3.008 1.000 1.00000 2.650 1.000      1.585  23.000
  819 2.630 2.274  2.986 1.000 1.00000 2.630 1.000      0.228  23.000
  820 2.640 2.283  2.997 1.000 1.00000 2.640 1.000      0.444  23.000
  821 2.650 2.292  3.008 1.000 1.00000 2.650 1.000      5.599  23.000
  822 2.630 2.274  2.986 1.000 1.00000 2.630 1.000      1.580  23.000
  823 2.660 2.301  3.019 1.000 1.00000 2.660 1.000      4.073  23.000
  824 2.620 2.265  2.975 1.000 1.00000 2.620 1.000      3.247  23.000
  825 2.580 2.229  2.931 1.000 1.00000 2.580 1.000      0.020  23.000
  826 2.650 2.292  3.008 1.000 1.00000 2.650 1.000      3.420  23.000
  827 2.690 2.328  3.052 1.000 1.00000 2.690 1.000      3.260  23.000
  828 2.720 2.355  3.085 1.000 1.00000 2.720 1.000      9.465  23.000
  829 2.660 2.301  3.019 1.000 1.00000 2.660 1.000      3.013  23.000
  830 2.640 2.283  2.997 1.000 1.00000 2.640 1.000      1.604  23.000
  831 2.750 2.383  3.117 1.000 1.00000 2.750 1.000     72.296  23.000
  832 2.630 2.274  2.986 1.000 1.00000 2.630 1.000      0.229  23.000
  833 2.740 2.373  3.107 1.000 1.00000 2.740 1.000     10.828  23.000
  834 2.650 2.292  3.008 1.000 1.00000 2.650 1.000      5.884  23.000
  835 2.640 2.283  2.997 1.000 1.00000 2.640 1.000      0.495  23.000
  836 2.630 2.274  2.986 1.000 1.00000 2.630 1.000      0.252  23.000
  837 2.660 2.301  3.019 1.000 1.00000 2.660 1.000      3.522  23.000
  838 2.650 2.292  3.008 1.000 1.00000 2.650 1.000      4.619  23.000
  839 2.670 2.310  3.030 1.000 1.00000 2.670 1.000     11.320  23.000
  840 2.650 2.292  3.008 1.000 1.00000 2.650 1.000     15.656  23.000
  841 2.620 2.265  2.975 1.000 1.00000 2.620 1.000      1.253  23.000
  842 2.650 2.292  3.008 1.000 1.00000 2.650 1.000      3.868  23.000
  843 2.720 2.355  3.085 1.000 1.00000 2.720 1.000     25.515  23.000
  844 2.680 2.319  3.041 1.000 1.00000 2.680 1.000      7.369  23.000
  845 2.660 2.301  3.019 1.000 1.00000 2.660 1.000     10.247  23.000
  846 2.690 2.328  3.052 1.000 1.00000 2.690 1.000      6.673  23.000
  847 2.700 2.337  3.063 1.000 1.00000 2.700 1.000     12.748  23.000
  848 2.670 2.310  3.030 1.000 1.00000 2.670 1.000      5.282  23.000
  849 2.670 2.310  3.030 1.000 1.00000 2.670 1.000     14.789  23.000
  850 2.680 2.319  3.041 1.000 1.00000 2.680 1.000      6.163  23.000
  851 2.630 2.274  2.986 1.000 1.00000 2.630 1.000      0.808  23.000
  852 2.660 2.301  3.019 1.000 1.00000 2.660 1.000      3.092  23.000
  853 2.660 2.301  3.019 1.000 1.00000 2.660 1.000      3.829  23.000
  854 2.730 2.364  3.096 1.000 1.00000 2.730 1.000      9.089  23.000
  855 2.660 2.301  3.019 1.000 1.00000 2.660 1.000      4.340  23.000
  856 2.750 2.383  3.117 1.000 1.00000 2.750 1.000     31.727  23.000
  857 2.660 2.301  3.019 1.000 1.00000 2.660 1.000      5.337  23.000
  858 2.730 2.364  3.096 1.000 1.00000 2.730 1.000     29.085  23.000
  859 2.650 2.292  3.008 1.000 1.00000 2.650 1.000      2.105  23.000
  860 2.650 2.292  3.008 1.000 1.00000 2.650 1.000      2.607  23.000
  861 2.690 2.328  3.052 1.000 1.00000 2.690 1.000      6.239  23.000
  862 2.590 2.238  2.942 1.000 1.00000 2.590 1.000      2.172  23.000
  863 2.680 2.319  3.041 1.000 1.00000 2.680 1.000      8.016  23.000
  864 2.660 2.301  3.019 1.000 1.00000 2.660 1.000      9.458  23.000
  865 2.650 2.292  3.008 1.000 1.00000 2.650 1.000      6.376  23.000
  866 2.650 2.292  3.008 1.000 1.00000 2.650 1.000      2.025  23.000
  867 2.650 2.292  3.008 1.000 1.00000 2.650 1.000      2.979  23.000
  868 2.670 2.310  3.030 1.000 1.00000 2.670 1.000      5.363  23.000
  869 2.720 2.355  3.085 1.000 1.00000 2.720 1.000     27.472  23.000
  870 2.700 2.337  3.063 1.000 1.00000 2.700 1.000     25.524  23.000
  871 2.670 2.310  3.030 1.000 1.00000 2.670 1.000      4.406  23.000
  872 2.660 2.301  3.019 1.000 1.00000 2.660 1.000      2.338  23.000
  873 2.660 2.301  3.019 1.000 1.00000 2.660 1.000      8.488  23.000
  874 2.680 2.319  3.041 1.000 1.00000 2.680 1.000     13.581  23.000
  875 2.640 2.283  2.997 1.000 1.00000 2.640 1.000      2.103  23.000
  876 2.650 2.292  3.008 1.000 1.00000 2.650 1.000      0.519  23.000
  877 2.660 2.301  3.019 1.000 1.00000 2.660 1.000      6.186  23.000
  878 2.720 2.355  3.085 1.000 1.00000 2.720 1.000     10.508  23.000
  879 2.640 2.283  2.997 1.000 1.00000 2.640 1.000      1.606  23.000
  880 2.660 2.301  3.019 1.000 1.00000 2.660 1.000      4.592  23.000
  881 2.670 2.310  3.030 1.000 1.00000 2.670 1.000      7.680  23.000
  882 2.650 2.292  3.008 1.000 1.00000 2.650 1.000      4.102  23.000
  883 2.600 2.247  2.953 1.000 1.00000 2.600 1.000      0.266  23.000
  884 2.600 2.247  2.953 1.000 1.00000 2.600 1.000      0.980  23.000
  885 2.660 2.301  3.019 1.000 1.00000 2.660 1.000      0.938  23.000
  886 2.680 2.319  3.041 1.000 1.00000 2.680 1.000     21.878  23.000
  887 2.650 2.292  3.008 1.000 1.00000 2.650 1.000     13.491  23.000
  888 2.660 2.301  3.019 1.000 1.00000 2.660 1.000      6.818  23.000
  889 2.730 2.364  3.096 1.000 1.00000 2.730 1.000     27.753  23.000
  890 2.730 2.364  3.096 1.000 1.00000 2.730 1.000     31.272  23.000
  891 2.660 2.301  3.019 1.000 1.00000 2.660 1.000     21.755  23.000
  892 2.720 2.355  3.085 1.000 1.00000 2.720 1.000     19.418  23.000
  893 2.700 2.337  3.063 1.000 1.00000 2.700 1.000     19.405  23.000
  894 2.740 2.373  3.107 1.000 1.00000 2.740 1.000     23.861  23.000
  895 2.650 2.292  3.008 1.000 1.00000 2.650 1.000      4.671  23.000
  896 2.660 2.301  3.019 1.000 1.00000 2.660 1.000      5.616  23.000
  897 2.620 2.265  2.975 1.000 1.00000 2.620 1.000      0.135  23.000
  898 2.660 2.301  3.019 1.000 1.00000 2.660 1.000      2.414  23.000
  899 2.670 2.310  3.030 1.000 1.00000 2.670 1.000      5.206  23.000
  900 2.670 2.310  3.030 1.000 1.00000 2.670 1.000     10.097  23.000
  901 2.650 2.292  3.008 1.000 1.00000 2.650 1.000      1.146  23.000
  902 2.660 2.301  3.019 1.000 1.00000 2.660 1.000      9.592  23.000
  903 2.660 2.301  3.019 1.000 1.00000 2.660 1.000     12.431  23.000
  904 2.650 2.292  3.008 1.000 1.00000 2.650 1.000      3.716  23.000
  905 2.650 2.292  3.008 1.000 1.00000 2.650 1.000      8.024  23.000
  906 2.610 2.256  2.964 1.000 1.00000 2.610 1.000      3.046  23.000
  907 2.690 2.328  3.052 1.000 1.00000 2.690 1.000     16.610  23.000
  908 2.690 2.328  3.052 1.000 1.00000 2.690 1.000     13.312  23.000
  909 2.650 2.292  3.008 1.000 1.00000 2.650 1.000      1.543  23.000
  910 2.650 2.292  3.008 1.000 1.00000 2.650 1.000      5.324  23.000
  911 2.670 2.310  3.030 1.000 1.00000 2.670 1.000     13.447  23.000
  912 2.660 2.301  3.019 1.000 1.00000 2.660 1.000      2.768  23.000
  913 2.660 2.301  3.019 1.000 1.00000 2.660 1.000      5.268  23.000
  914 2.660 2.301  3.019 1.000 1.00000 2.660 1.000      4.695  23.000
  915 2.650 2.292  3.008 1.000 1.00000 2.650 1.000      4.157  23.000
  916 2.620 2.265  2.975 1.000 1.00000 2.620 1.000      0.669  23.000
  917 2.660 2.301  3.019 1.000 1.00000 2.660 1.000      3.055  23.000
  918 2.650 2.292  3.008 1.000 1.00000 2.650 1.000      2.473  23.000
  919 2.650 2.292  3.008 1.000 1.00000 2.650 1.000      4.340  23.000
  920 2.650 2.292  3.008 1.000 1.00000 2.650 1.000      3.368  23.000
  921 2.650 2.292  3.008 1.000 1.00000 2.650 1.000      2.073  23.000
  922 2.640 2.283  2.997 1.000 1.00000 2.640 1.000      0.981  23.000
  923 2.670 2.310  3.030 1.000 1.00000 2.670 1.000      2.115  23.000
  924 2.660 2.301  3.019 1.000 1.00000 2.660 1.000      5.259  23.000
  925 2.630 2.274  2.986 1.000 1.00000 2.630 1.000      0.534  23.000
  926 2.650 2.292  3.008 1.000 1.00000 2.650 1.000      5.611  23.000
  927 2.620 2.265  2.975 1.000 1.00000 2.620 1.000      0.426  23.000
  928 2.720 2.355  3.085 1.000 1.00000 2.720 1.000     30.763  23.000
  929 2.660 2.301  3.019 1.000 1.00000 2.660 1.000      4.149  23.000
  930 2.650 2.292  3.008 1.000 1.00000 2.650 1.000      7.826  23.000
  931 2.640 2.283  2.997 1.000 1.00000 2.640 1.000      0.641  23.000
  932 2.650 2.292  3.008 1.000 1.00000 2.650 1.000      0.629  23.000
  933 2.650 2.292  3.008 1.000 1.00000 2.650 1.000      2.267  23.000
  934 2.660 2.301  3.019 1.000 1.00000 2.660 1.000      1.688  23.000
  935 2.660 2.301  3.019 1.000 1.00000 2.660 1.000      6.380  23.000
  936 2.650 2.292  3.008 1.000 1.00000 2.650 1.000      6.189  23.000
  937 2.650 2.292  3.008 1.000 1.00000 2.650 1.000      3.562  23.000
  938 2.620 2.265  2.975 1.000 1.00000 2.620 1.000      0.282  23.000
  939 2.620 2.265  2.975 1.000 1.00000 2.620 1.000      0.578  23.000
  940 2.570 2.220  2.920 1.000 1.00000 2.570 1.000      0.583  23.000
  941 2.650 2.292  3.008 1.000 1.00000 2.650 1.000      8.476  23.000
  942 2.650 2.292  3.008 1.000 1.00000 2.650 1.000      0.553  23.000
  943 2.650 2.292  3.008 1.000 1.00000 2.650 1.000      8.760  23.000
  944 2.650 2.292  3.008 1.000 1.00000 2.650 1.000      1.227  23.000
  945 2.680 2.319  3.041 1.000 1.00000 2.680 1.000      3.671  23.000
  946 2.670 2.310  3.030 1.000 1.00000 2.670 1.000      3.564  23.000
  947 2.710 2.346  3.074 1.000 1.00000 2.710 1.000     22.760  23.000
  948 2.630 2.274  2.986 1.000 1.00000 2.630 1.000      1.144  23.000
  949 2.650 2.292  3.008 1.000 1.00000 2.650 1.000      3.725  23.000
  950 2.690 2.328  3.052 1.000 1.00000 2.690 1.000     14.339  23.000
  951 2.680 2.319  3.041 1.000 1.00000 2.680 1.000     19.428  23.000
  952 2.740 2.373  3.107 1.000 1.00000 2.740 1.000     35.725  23.000
  953 2.660 2.301  3.019 1.000 1.00000 2.660 1.000      6.410  23.000
  954 2.690 2.328  3.052 1.000 1.00000 2.690 1.000     13.124  23.000
  955 2.660 2.301  3.019 1.000 1.00000 2.660 1.000     11.160  23.000
  956 2.660 2.301  3.019 1.000 1.00000 2.660 1.000      9.116  23.000
  957 2.660 2.301  3.019 1.000 1.00000 2.660 1.000      9.886  23.000
  958 2.660 2.301  3.019 1.000 1.00000 2.660 1.000      4.066  23.000
  959 2.690 2.328  3.052 1.000 1.00000 2.690 1.000     19.786  23.000
  960 2.620 2.265  2.975 1.000 1.00000 2.620 1.000      0.242  23.000
  961 2.660 2.301  3.019 1.000 1.00000 2.660 1.000      3.636  23.000
  962 2.650 2.292  3.008 1.000 1.00000 2.650 1.000      2.239  23.000
  963 2.580 2.229  2.931 1.000 1.00000 2.580 1.000      0.199  23.000
  964 2.650 2.292  3.008 1.000 1.00000 2.650 1.000      3.591  23.000
  965 2.660 2.301  3.019 1.000 1.00000 2.660 1.000      8.383  23.000
  966 2.660 2.301  3.019 1.000 1.00000 2.660 1.000      6.158  23.000
  967 2.690 2.328  3.052 1.000 1.00000 2.690 1.000      5.967  23.000
  968 2.650 2.292  3.008 1.000 1.00000 2.650 1.000      6.764  23.000
  969 2.660 2.301  3.019 1.000 1.00000 2.660 1.000      8.274  23.000
  970 2.650 2.292  3.008 1.000 1.00000 2.650 1.000      0.932  23.000
  971 2.690 2.328  3.052 1.000 1.00000 2.690 1.000     10.911  23.000
  972 2.660 2.301  3.019 1.000 1.00000 2.660 1.000      8.931  23.000
  973 2.620 2.265  2.975 1.000 1.00000 2.620 1.000      3.984  23.000
  974 2.600 2.247  2.953 1.000 1.00000 2.600 1.000      0.295  23.000
  975 2.630 2.274  2.986 1.000 1.00000 2.630 1.000      1.070  23.000
  976 2.680 2.319  3.041 1.000 1.00000 2.680 1.000      6.257  23.000
  977 2.640 2.283  2.997 1.000 1.00000 2.640 1.000      0.694  23.000
  978 2.640 2.283  2.997 1.000 1.00000 2.640 1.000      0.486  23.000
  979 2.650 2.292  3.008 1.000 1.00000 2.650 1.000      4.639  23.000
  980 2.650 2.292  3.008 1.000 1.00000 2.650 1.000      6.496  23.000
  981 2.630 2.274  2.986 1.000 1.00000 2.630 1.000      0.550  23.000
  982 2.660 2.301  3.019 1.000 1.00000 2.660 1.000      4.020  23.000
  983 2.710 2.346  3.074 1.000 1.00000 2.710 1.000     37.422  23.000
  984 2.690 2.328  3.052 1.000 1.00000 2.690 1.000     17.921  23.000
  985 2.650 2.292  3.008 1.000 1.00000 2.650 1.000      2.215  23.000
  986 2.650 2.292  3.008 1.000 1.00000 2.650 1.000      4.244  23.000
  987 2.650 2.292  3.008 1.000 1.00000 2.650 1.000      0.555  23.000
  988 2.650 2.292  3.008 1.000 1.00000 2.650 1.000      1.767  23.000
  989 2.590 2.238  2.942 1.000 1.00000 2.590 1.000      1.250  23.000
  990 2.660 2.301  3.019 1.000 1.00000 2.660 1.000     15.921  23.000
  991 2.660 2.301  3.019 1.000 1.00000 2.660 1.000     10.016  23.000
  992 2.660 2.301  3.019 1.000 1.00000 2.660 1.000     10.866  23.000
  993 2.660 2.301  3.019 1.000 1.00000 2.660 1.000      4.912  23.000
  994 2.600 2.247  2.953 1.000 1.00000 2.600 1.000      1.117  23.000
  995 2.720 2.355  3.085 1.000 1.00000 2.720 1.000     33.977  23.000
  996 2.690 2.328  3.052 1.000 1.00000 2.690 1.000     13.531  23.000
  997 2.620 2.265  2.975 1.000 1.00000 2.620 1.000      2.643  23.000
  998 2.650 2.292  3.008 1.000 1.00000 2.650 1.000      3.265  23.000
  999 2.630 2.274  2.986 1.000 1.00000 2.630 1.000      2.918  23.000
 1000 2.650 2.292  3.008 1.000 1.00000 2.650 1.000      1.481  23.000
 1001 2.640 2.283  2.997 1.000 1.00000 2.640 1.000      0.529  23.000
 1002 2.710 2.346  3.074 1.000 1.00000 2.710 1.000     31.239  23.000
 1003 2.710 2.346  3.074 1.000 1.00000 2.710 1.000     23.236  23.000
 1004 2.660 2.301  3.019 1.000 1.00000 2.660 1.000      6.746  23.000
 1005 2.650 2.292  3.008 1.000 1.00000 2.650 1.000      3.407  23.000
 1006 2.620 2.265  2.975 1.000 1.00000 2.620 1.000      0.443  23.000
 1007 2.660 2.301  3.019 1.000 1.00000 2.660 1.000      7.674  23.000
 1008 2.650 2.292  3.008 1.000 1.00000 2.650 1.000      2.345  23.000
 1009 2.640 2.283  2.997 1.000 1.00000 2.640 1.000      0.757  23.000
 1010 2.640 2.283  2.997 1.000 1.00000 2.640 1.000      1.120  23.000
 1011 2.660 2.301  3.019 1.000 1.00000 2.660 1.000     12.143  23.000
 1012 2.630 2.274  2.986 1.000 1.00000 2.630 1.000      0.284  23.000
 1013 2.650 2.292  3.008 1.000 1.00000 2.650 1.000     11.041  23.000
 1014 2.700 2.337  3.063 1.000 1.00000 2.700 1.000     10.808  23.000
 1015 2.650 2.292  3.008 1.000 1.00000 2.650 1.000      4.517  23.000
 1016 2.680 2.319  3.041 1.000 1.00000 2.680 1.000     14.648  23.000
 1017 2.680 2.319  3.041 1.000 1.00000 2.680 1.000     13.478  23.000
 1018 2.670 2.310  3.030 1.000 1.00000 2.670 1.000     11.111  23.000
 1019 2.650 2.292  3.008 1.000 1.00000 2.650 1.000      5.001  23.000
 1020 2.660 2.301  3.019 1.000 1.00000 2.660 1.000      3.572  23.000
 1021 2.650 2.292  3.008 1.000 1.00000 2.650 1.000      4.807  23.000
 1022 2.670 2.310  3.030 1.000 1.00000 2.670 1.000      2.588  23.000
 1023 2.740 2.373  3.107 1.000 1.00000 2.740 1.000     35.756  23.000
 1024 2.660 2.301  3.019 1.000 1.00000 2.660 1.000      6.587  23.000
 1025 2.660 2.301  3.019 1.000 1.00000 2.660 1.000      5.383  23.000
 1026 2.700 2.337  3.063 1.000 1.00000 2.700 1.000     13.449  23.000
 1027 2.700 2.337  3.063 1.000 1.00000 2.700 1.000     16.747  23.000
 1028 2.660 2.301  3.019 1.000 1.00000 2.660 1.000      9.164  23.000
 1029 2.650 2.292  3.008 1.000 1.00000 2.650 1.000      4.977  23.000
 1030 2.690 2.328  3.052 1.000 1.00000 2.690 1.000      6.857  23.000
 1031 2.740 2.373  3.107 1.000 1.00000 2.740 1.000     20.855  23.000
 1032 2.660 2.301  3.019 1.000 1.00000 2.660 1.000      6.822  23.000
 1033 2.660 2.301  3.019 1.000 1.00000 2.660 1.000     12.185  23.000
 1034 2.750 2.383  3.117 1.000 1.00000 2.750 1.000     66.738  23.000
 1035 2.690 2.328  3.052 1.000 1.00000 2.690 1.000     22.575  23.000
 1036 2.670 2.310  3.030 1.000 1.00000 2.670 1.000      4.616  23.000
 1037 2.650 2.292  3.008 1.000 1.00000 2.650 1.000      3.148  23.000
 1038 2.620 2.265  2.975 1.000 1.00000 2.620 1.000      0.545  23.000
 1039 2.660 2.301  3.019 1.000 1.00000 2.660 1.000      2.598  23.000
 1040 2.650 2.292  3.008 1.000 1.00000 2.650 1.000      5.853  23.000
 1041 2.650 2.292  3.008 1.000 1.00000 2.650 1.000      0.609  23.000
 1042 2.680 2.319  3.041 1.000 1.00000 2.680 1.000      3.021  23.000
 1043 2.720 2.355  3.085 1.000 1.00000 2.720 1.000     29.007  23.000
 1044 2.710 2.346  3.074 1.000 1.00000 2.710 1.000     28.425  23.000
 1045 2.720 2.355  3.085 1.000 1.00000 2.720 1.000     30.170  23.000
 1046 2.660 2.301  3.019 1.000 1.00000 2.660 1.000      5.009  23.000
 1047 2.670 2.310  3.030 1.000 1.00000 2.670 1.000     15.052  23.000
 1048 2.650 2.292  3.008 1.000 1.00000 2.650 1.000      1.363  23.000
 1049 2.650 2.292  3.008 1.000 1.00000 2.650 1.000      5.251  23.000
 1050 2.680 2.319  3.041 1.000 1.00000 2.680 1.000      5.643  23.000
 1051 2.680 2.319  3.041 1.000 1.00000 2.680 1.000     17.978  23.000
 1052 2.720 2.355  3.085 1.000 1.00000 2.720 1.000     21.088  23.000
 1053 2.650 2.292  3.008 1.000 1.00000 2.650 1.000      8.244  23.000
 1054 2.690 2.328  3.052 1.000 1.00000 2.690 1.000     19.901  23.000
 1055 2.650 2.292  3.008 1.000 1.00000 2.650 1.000      5.423  23.000
 1056 2.680 2.319  3.041 1.000 1.00000 2.680 1.000      2.145  23.000
 1057 2.650 2.292  3.008 1.000 1.00000 2.650 1.000     11.147  23.000
 1058 2.660 2.301  3.019 1.000 1.00000 2.660 1.000      5.538  23.000
 1059 2.600 2.247  2.953 1.000 1.00000 2.600 1.000      0.113  23.000
 1060 2.660 2.301  3.019 1.000 1.00000 2.660 1.000      4.458  23.000
 1061 2.730 2.364  3.096 1.000 1.00000 2.730 1.000     28.105  23.000
 1062 2.700 2.337  3.063 1.000 1.00000 2.700 1.000     11.068  23.000
 1063 2.650 2.292  3.008 1.000 1.00000 2.650 1.000      2.690  23.000
 1064 2.640 2.283  2.997 1.000 1.00000 2.640 1.000      3.132  23.000
 1065 2.650 2.292  3.008 1.000 1.00000 2.650 1.000      6.536  23.000
 1066 2.660 2.301  3.019 1.000 1.00000 2.660 1.000      4.507  23.000
 1067 2.730 2.364  3.096 1.000 1.00000 2.730 1.000     36.030  23.000
 1068 2.660 2.301  3.019 1.000 1.00000 2.660 1.000      6.222  23.000
 1069 2.670 2.310  3.030 1.000 1.00000 2.670 1.000      1.349  23.000
 1070 2.660 2.301  3.019 1.000 1.00000 2.660 1.000     12.303  23.000
 1071 2.650 2.292  3.008 1.000 1.00000 2.650 1.000      2.186  23.000
 1072 2.610 2.256  2.964 1.000 1.00000 2.610 1.000      0.310  23.000
 1073 2.700 2.337  3.063 1.000 1.00000 2.700 1.000      7.083  23.000
 1074 2.680 2.319  3.041 1.000 1.00000 2.680 1.000      3.933  23.000
 1075 2.650 2.292  3.008 1.000 1.00000 2.650 1.000      2.146  23.000
 1076 2.740 2.373  3.107 1.000 1.00000 2.740 1.000     31.139  23.000
 1077 2.660 2.301  3.019 1.000 1.00000 2.660 1.000      8.543  23.000
 1078 2.650 2.292  3.008 1.000 1.00000 2.650 1.000      2.061  23.000
 1079 2.660 2.301  3.019 1.000 1.00000 2.660 1.000      7.652  23.000
 1080 2.650 2.292  3.008 1.000 1.00000 2.650 1.000      1.221  23.000
 1081 2.660 2.301  3.019 1.000 1.00000 2.660 1.000      5.339  23.000
 1082 2.640 2.283  2.997 1.000 1.00000 2.640 1.000      1.342  23.000
 1083 2.690 2.328  3.052 1.000 1.00000 2.690 1.000     19.402  23.000
 1084 2.630 2.274  2.986 1.000 1.00000 2.630 1.000      0.897  23.000
 1085 2.630 2.274  2.986 1.000 1.00000 2.630 1.000      1.219  23.000
 1086 2.680 2.319  3.041 1.000 1.00000 2.680 1.000     11.639  23.000
 1087 2.660 2.301  3.019 1.000 1.00000 2.660 1.000      6.050  23.000
 1088 2.660 2.301  3.019 1.000 1.00000 2.660 1.000      6.141  23.000
 1089 2.680 2.319  3.041 1.000 1.00000 2.680 1.000      6.776  23.000
 1090 2.660 2.301  3.019 1.000 1.00000 2.660 1.000      2.990  23.000
 1091 2.590 2.238  2.942 1.000 1.00000 2.590 1.000      0.634  23.000
 1092 2.650 2.292  3.008 1.000 1.00000 2.650 1.000      2.459  23.000
 1093 2.640 2.283  2.997 1.000 1.00000 2.640 1.000      0.358  23.000
 1094 2.620 2.265  2.975 1.000 1.00000 2.620 1.000      1.593  23.000
 1095 2.700 2.337  3.063 1.000 1.00000 2.700 1.000     27.996  23.000
 1096 2.660 2.301  3.019 1.000 1.00000 2.660 1.000      5.801  23.000
 1097 2.620 2.265  2.975 1.000 1.00000 2.620 1.000      1.047  23.000
 1098 2.590 2.238  2.942 1.000 1.00000 2.590 1.000     10.852  23.000
 1099 2.650 2.292  3.008 1.000 1.00000 2.650 1.000      2.124  23.000
 1100 2.650 2.292  3.008 1.000 1.00000 2.650 1.000      2.884  23.000
 1101 2.650 2.292  3.008 1.000 1.00000 2.650 1.000      1.755  23.000
 1102 2.640 2.283  2.997 1.000 1.00000 2.640 1.000      2.228  23.000
 1103 2.680 2.319  3.041 1.000 1.00000 2.680 1.000     19.784  23.000
 1104 2.760 2.392  3.128 1.000 1.00000 2.760 1.000     69.492  23.000
 1105 2.650 2.292  3.008 1.000 1.00000 2.650 1.000      0.551  23.000
 1106 2.660 2.301  3.019 1.000 1.00000 2.660 1.000      3.864  23.000
 1107 2.650 2.292  3.008 1.000 1.00000 2.650 1.000      0.959  23.000
 1108 2.600 2.247  2.953 1.000 1.00000 2.600 1.000      0.653  23.000
 1109 2.700 2.337  3.063 1.000 1.00000 2.700 1.000      7.411  23.000
 1110 2.670 2.310  3.030 1.000 1.00000 2.670 1.000      4.446  23.000
 1111 2.580 2.229  2.931 1.000 1.00000 2.580 1.000      1.555  23.000
 1112 2.630 2.274  2.986 1.000 1.00000 2.630 1.000      2.009  23.000
 1113 2.680 2.319  3.041 1.000 1.00000 2.680 1.000     15.741  23.000
 1114 2.660 2.301  3.019 1.000 1.00000 2.660 1.000      4.785  23.000
 1115 2.650 2.292  3.008 1.000 1.00000 2.650 1.000      0.679  23.000
 1116 2.650 2.292  3.008 1.000 1.00000 2.650 1.000      0.565  23.000
 1117 2.650 2.292  3.008 1.000 1.00000 2.650 1.000      6.698  23.000
 1118 2.640 2.283  2.997 1.000 1.00000 2.640 1.000      0.728  23.000
 1119 2.710 2.346  3.074 1.000 1.00000 2.710 1.000     12.976  23.000
 1120 2.730 2.364  3.096 1.000 1.00000 2.730 1.000     22.526  23.000
 1121 2.640 2.283  2.997 1.000 1.00000 2.640 1.000      0.770  23.000
 1122 2.650 2.292  3.008 1.000 1.00000 2.650 1.000      6.674  23.000
 1123 2.690 2.328  3.052 1.000 1.00000 2.690 1.000     16.632  23.000
 1124 2.660 2.301  3.019 1.000 1.00000 2.660 1.000      5.113  23.000
 1125 2.640 2.283  2.997 1.000 1.00000 2.640 1.000      1.138  23.000
 1126 2.660 2.301  3.019 1.000 1.00000 2.660 1.000      3.733  23.000
 1127 2.690 2.328  3.052 1.000 1.00000 2.690 1.000      8.058  23.000
 1128 2.660 2.301  3.019 1.000 1.00000 2.660 1.000      1.829  23.000
 1129 2.630 2.274  2.986 1.000 1.00000 2.630 1.000      0.298  23.000
 1130 2.660 2.301  3.019 1.000 1.00000 2.660 1.000      6.791  23.000
 1131 2.650 2.292  3.008 1.000 1.00000 2.650 1.000      1.763  23.000
 1132 2.640 2.283  2.997 1.000 1.00000 2.640 1.000      0.288  23.000
 1133 2.640 2.283  2.997 1.000 1.00000 2.640 1.000      0.305  23.000
 1134 2.660 2.301  3.019 1.000 1.00000 2.660 1.000      8.626  23.000
 1135 2.650 2.292  3.008 1.000 1.00000 2.650 1.000      1.736  23.000
 1136 2.730 2.364  3.096 1.000 1.00000 2.730 1.000     33.025  23.000
 1137 2.660 2.301  3.019 1.000 1.00000 2.660 1.000      3.682  23.000
 1138 2.660 2.301  3.019 1.000 1.00000 2.660 1.000      4.632  23.000
 1139 2.650 2.292  3.008 1.000 1.00000 2.650 1.000      3.034  23.000
 1140 2.670 2.310  3.030 1.000 1.00000 2.670 1.000      7.412  23.000
 1141 2.650 2.292  3.008 1.000 1.00000 2.650 1.000      2.718  23.000
 1142 2.660 2.301  3.019 1.000 1.00000 2.660 1.000      7.492  23.000
 1143 2.650 2.292  3.008 1.000 1.00000 2.650 1.000      7.244  23.000
 1144 2.670 2.310  3.030 1.000 1.00000 2.670 1.000      8.380  23.000
 1145 2.620 2.265  2.975 1.000 1.00000 2.620 1.000      0.308  23.000
 1146 2.650 2.292  3.008 1.000 1.00000 2.650 1.000      1.904  23.000
 1147 2.650 2.292  3.008 1.000 1.00000 2.650 1.000      0.502  23.000
 1148 2.650 2.292  3.008 1.000 1.00000 2.650 1.000      4.907  23.000
 1149 2.650 2.292  3.008 1.000 1.00000 2.650 1.000      1.093  23.000
 1150 2.660 2.301  3.019 1.000 1.00000 2.660 1.000      3.236  23.000
 1151 2.650 2.292  3.008 1.000 1.00000 2.650 1.000      5.046  23.000
 1152 2.690 2.328  3.052 1.000 1.00000 2.690 1.000     23.076  23.000
 1153 2.730 2.364  3.096 1.000 1.00000 2.730 1.000     31.905  23.000
 1154 2.680 2.319  3.041 1.000 1.00000 2.680 1.000     11.022  23.000
 1155 2.670 2.310  3.030 1.000 1.00000 2.670 1.000     19.324  23.000
 1156 2.670 2.310  3.030 1.000 1.00000 2.670 1.000      4.526  23.000
 1157 2.660 2.301  3.019 1.000 1.00000 2.660 1.000     12.960  23.000
 1158 2.680 2.319  3.041 1.000 1.00000 2.680 1.000      3.442  23.000
 1159 2.660 2.301  3.019 1.000 1.00000 2.660 1.000      5.715  23.000
 1160 2.640 2.283  2.997 1.000 1.00000 2.640 1.000      0.377  23.000
 1161 2.650 2.292  3.008 1.000 1.00000 2.650 1.000      4.900  23.000
 1162 2.680 2.319  3.041 1.000 1.00000 2.680 1.000     10.835  23.000
 1163 2.700 2.337  3.063 1.000 1.00000 2.700 1.000     34.006  23.000
 1164 2.590 2.238  2.942 1.000 1.00000 2.590 1.000      0.326  23.000
 1165 2.660 2.301  3.019 1.000 1.00000 2.660 1.000      3.481  23.000
 1166 2.740 2.373  3.107 1.000 1.00000 2.740 1.000     26.700  23.000
 1167 2.570 2.220  2.920 1.000 1.00000 2.570 1.000      0.243  23.000
 1168 2.660 2.301  3.019 1.000 1.00000 2.660 1.000      1.877  23.000
 1169 2.650 2.292  3.008 1.000 1.00000 2.650 1.000      8.287  23.000
 1170 2.700 2.337  3.063 1.000 1.00000 2.700 1.000     13.118  23.000
 1171 2.690 2.328  3.052 1.000 1.00000 2.690 1.000     10.983  23.000
 1172 2.670 2.310  3.030 1.000 1.00000 2.670 1.000     10.370  23.000
 1173 2.660 2.301  3.019 1.000 1.00000 2.660 1.000     15.219  23.000
 1174 2.690 2.328  3.052 1.000 1.00000 2.690 1.000     10.292  23.000
 1175 2.650 2.292  3.008 1.000 1.00000 2.650 1.000      7.039  23.000
 1176 2.630 2.274  2.986 1.000 1.00000 2.630 1.000      0.424  23.000
 1177 2.660 2.301  3.019 1.000 1.00000 2.660 1.000      2.056  23.000
 1178 2.660 2.301  3.019 1.000 1.00000 2.660 1.000      3.369  23.000
 1179 2.650 2.292  3.008 1.000 1.00000 2.650 1.000      3.210  23.000
 1180 2.670 2.310  3.030 1.000 1.00000 2.670 1.000      5.256  23.000
 1181 2.630 2.274  2.986 1.000 1.00000 2.630 1.000      3.513  23.000
 1182 2.750 2.383  3.117 1.000 1.00000 2.750 1.000     37.847  23.000
 1183 2.660 2.301  3.019 1.000 1.00000 2.660 1.000      8.384  23.000
 1184 2.730 2.364  3.096 1.000 1.00000 2.730 1.000     11.367  23.000
 1185 2.650 2.292  3.008 1.000 1.00000 2.650 1.000      2.246  23.000
 1186 2.650 2.292  3.008 1.000 1.00000 2.650 1.000      6.467  23.000
 1187 2.660 2.301  3.019 1.000 1.00000 2.660 1.000      5.755  23.000
 1188 2.730 2.364  3.096 1.000 1.00000 2.730 1.000     12.599  23.000
 1189 2.670 2.310  3.030 1.000 1.00000 2.670 1.000      1.280  23.000
 1190 2.660 2.301  3.019 1.000 1.00000 2.660 1.000     12.051  23.000
 1191 2.650 2.292  3.008 1.000 1.00000 2.650 1.000      0.986  23.000
 1192 2.660 2.301  3.019 1.000 1.00000 2.660 1.000      8.474  23.000
 1193 2.650 2.292  3.008 1.000 1.00000 2.650 1.000      4.542  23.000
 1194 2.660 2.301  3.019 1.000 1.00000 2.660 1.000      4.982  23.000
 1195 2.640 2.283  2.997 1.000 1.00000 2.640 1.000      2.978  23.000
 1196 2.660 2.301  3.019 1.000 1.00000 2.660 1.000      5.577  23.000
 1197 2.650 2.292  3.008 1.000 1.00000 2.650 1.000      2.946  23.000
 1198 2.640 2.283  2.997 1.000 1.00000 2.640 1.000      3.350  23.000
 1199 2.660 2.301  3.019 1.000 1.00000 2.660 1.000      5.645  23.000
 1200 2.750 2.383  3.117 1.000 1.00000 2.750 1.000     25.707  23.000
