## File LOS/SB2_B2004a_2.6z_Mags_200.bpz  Fri Aug 12 23:37:08 2016
##
##Parameters used to run BPZ:
##
##AB_DIR=/home/lidenscheng/bpz-1.99.3//AB/
##ADD_CONTINUOUS_PROB=None
##ADD_SPEC_PROB=None
##CHECK=LOS/SB2_B2004a_2.6z_Mags_200.flux_comparison
##COLOR=no
##COLUMNS=losNoErrors.columns
##CONVOLVE_P=yes
##DELTA_M_0=0.0
##DZ=0.01
##EXCLUDE=none
##FC=None
##FILTER_DIR=/home/lidenscheng/MK_DirectSim/filters/
##GET_Z=yes
##INPUT=LOS/SB2_B2004a_2.6z_Mags_200.txt
##INTERACTIVE=yes
##INTERP=0
##MADAU=no
##MAG=yes
##MEAN_IGM=yes
##MERGE_PEAKS=no
##MIN_MAGERR=0.001
##MIN_RMS=0.05
##NEW_AB=no
##NMAX=None
##NTYPES=None
##N_PEAKS=1
##ODDS=0.95
##ONLY_TYPE=no
##OUTPUT=LOS/SB2_B2004a_2.6z_Mags_200.bpz
##PHOTO_ERRORS=no
##PLOTS=no
##PRIOR=none
##PROBS=no
##PROBS2=no
##PROBS_LITE=LOS/SB2_B2004a_2.6z_Mags_200.probs
##P_MIN=0.01
##SED_DIR=/home/lidenscheng/MK_DirectSim/SEDs/
##SPECTRA=SB2.list
##VERBOSE=yes
##ZC=None
##ZMAX=10.0
##ZMIN=0.01
##ZP_OFFSETS=0.0
##Z_THR=0
##
##Column information
##
# 1 ID
# 2 Z_B
# 3 Z_B_MIN
# 4 Z_B_MAX
# 5 T_B
# 6 ODDS    
# 7 Z_ML
# 8 T_ML
# 9 CHI-SQUARED
# 10 M_0
##
    1 2.650 2.292  3.008 1.000 1.00000 2.650 1.000      2.230  23.000
    2 2.680 2.319  3.041 1.000 1.00000 2.680 1.000     13.802  23.000
    3 2.640 2.283  2.997 1.000 1.00000 2.640 1.000      1.728  23.000
    4 2.730 2.364  3.096 1.000 1.00000 2.730 1.000     10.175  23.000
    5 2.650 2.292  3.008 1.000 1.00000 2.650 1.000      8.778  23.000
    6 2.660 2.301  3.019 1.000 1.00000 2.660 1.000      3.671  23.000
    7 2.660 2.301  3.019 1.000 1.00000 2.660 1.000      0.864  23.000
    8 2.640 2.283  2.997 1.000 1.00000 2.640 1.000      0.701  23.000
    9 2.640 2.283  2.997 1.000 1.00000 2.640 1.000      1.382  23.000
   10 2.680 2.319  3.041 1.000 1.00000 2.680 1.000     17.148  23.000
   11 2.660 2.301  3.019 1.000 1.00000 2.660 1.000      1.228  23.000
   12 2.690 2.328  3.052 1.000 1.00000 2.690 1.000     14.806  23.000
   13 2.650 2.292  3.008 1.000 1.00000 2.650 1.000      1.454  23.000
   14 2.700 2.337  3.063 1.000 1.00000 2.700 1.000     14.023  23.000
   15 2.720 2.355  3.085 1.000 1.00000 2.720 1.000     11.712  23.000
   16 2.710 2.346  3.074 1.000 1.00000 2.710 1.000     30.946  23.000
   17 2.660 2.301  3.019 1.000 1.00000 2.660 1.000      4.694  23.000
   18 2.620 2.265  2.975 1.000 1.00000 2.620 1.000      0.151  23.000
   19 2.620 2.265  2.975 1.000 1.00000 2.620 1.000      0.381  23.000
   20 2.660 2.301  3.019 1.000 1.00000 2.660 1.000      5.950  23.000
   21 2.650 2.292  3.008 1.000 1.00000 2.650 1.000      4.882  23.000
   22 2.580 2.229  2.931 1.000 1.00000 2.580 1.000      0.415  23.000
   23 2.650 2.292  3.008 1.000 1.00000 2.650 1.000      3.917  23.000
   24 2.670 2.310  3.030 1.000 1.00000 2.670 1.000      2.366  23.000
   25 2.680 2.319  3.041 1.000 1.00000 2.680 1.000     14.596  23.000
   26 2.650 2.292  3.008 1.000 1.00000 2.650 1.000      4.802  23.000
   27 2.650 2.292  3.008 1.000 1.00000 2.650 1.000     11.616  23.000
   28 2.680 2.319  3.041 1.000 1.00000 2.680 1.000     14.711  23.000
   29 2.630 2.274  2.986 1.000 1.00000 2.630 1.000      0.933  23.000
   30 2.760 2.392  3.128 1.000 1.00000 2.760 1.000     97.741  23.000
   31 2.650 2.292  3.008 1.000 1.00000 2.650 1.000      1.453  23.000
   32 2.620 2.265  2.975 1.000 1.00000 2.620 1.000      0.135  23.000
   33 2.670 2.310  3.030 1.000 1.00000 2.670 1.000      8.743  23.000
   34 2.660 2.301  3.019 1.000 1.00000 2.660 1.000      2.597  23.000
   35 2.680 2.319  3.041 1.000 1.00000 2.680 1.000      7.299  23.000
   36 2.660 2.301  3.019 1.000 1.00000 2.660 1.000      7.242  23.000
   37 2.650 2.292  3.008 1.000 1.00000 2.650 1.000      0.488  23.000
   38 2.740 2.373  3.107 1.000 1.00000 2.740 1.000     18.219  23.000
   39 2.640 2.283  2.997 1.000 1.00000 2.640 1.000      1.119  23.000
   40 2.620 2.265  2.975 1.000 1.00000 2.620 1.000      0.280  23.000
   41 2.650 2.292  3.008 1.000 1.00000 2.650 1.000      5.111  23.000
   42 2.640 2.283  2.997 1.000 1.00000 2.640 1.000      0.700  23.000
   43 2.650 2.292  3.008 1.000 1.00000 2.650 1.000      0.480  23.000
   44 2.650 2.292  3.008 1.000 1.00000 2.650 1.000      3.882  23.000
   45 2.660 2.301  3.019 1.000 1.00000 2.660 1.000      4.175  23.000
   46 2.650 2.292  3.008 1.000 1.00000 2.650 1.000      4.337  23.000
   47 2.660 2.301  3.019 1.000 1.00000 2.660 1.000      3.426  23.000
   48 2.680 2.319  3.041 1.000 1.00000 2.680 1.000      9.064  23.000
   49 2.590 2.238  2.942 1.000 1.00000 2.590 1.000      1.053  23.000
   50 2.610 2.256  2.964 1.000 1.00000 2.610 1.000      0.631  23.000
   51 2.650 2.292  3.008 1.000 1.00000 2.650 1.000      3.596  23.000
   52 2.660 2.301  3.019 1.000 1.00000 2.660 1.000      6.531  23.000
   53 2.750 2.383  3.117 1.000 1.00000 2.750 1.000     41.437  23.000
   54 2.740 2.373  3.107 1.000 1.00000 2.740 1.000     20.503  23.000
   55 2.700 2.337  3.063 1.000 1.00000 2.700 1.000     10.657  23.000
   56 2.640 2.283  2.997 1.000 1.00000 2.640 1.000      0.590  23.000
   57 2.760 2.392  3.128 1.000 1.00000 2.760 1.000     52.396  23.000
   58 2.690 2.328  3.052 1.000 1.00000 2.690 1.000     20.793  23.000
   59 2.660 2.301  3.019 1.000 1.00000 2.660 1.000      6.218  23.000
   60 2.650 2.292  3.008 1.000 1.00000 2.650 1.000      4.983  23.000
   61 2.660 2.301  3.019 1.000 1.00000 2.660 1.000      4.385  23.000
   62 2.660 2.301  3.019 1.000 1.00000 2.660 1.000      3.797  23.000
   63 2.680 2.319  3.041 1.000 1.00000 2.680 1.000     21.029  23.000
   64 2.740 2.373  3.107 1.000 1.00000 2.740 1.000     33.283  23.000
   65 2.660 2.301  3.019 1.000 1.00000 2.660 1.000      6.863  23.000
   66 2.650 2.292  3.008 1.000 1.00000 2.650 1.000      1.372  23.000
   67 2.690 2.328  3.052 1.000 1.00000 2.690 1.000     22.599  23.000
   68 2.690 2.328  3.052 1.000 1.00000 2.690 1.000     15.936  23.000
   69 2.660 2.301  3.019 1.000 1.00000 2.660 1.000      1.786  23.000
   70 2.630 2.274  2.986 1.000 1.00000 2.630 1.000      2.825  23.000
   71 2.650 2.292  3.008 1.000 1.00000 2.650 1.000     11.347  23.000
   72 2.670 2.310  3.030 1.000 1.00000 2.670 1.000      3.411  23.000
   73 2.670 2.310  3.030 1.000 1.00000 2.670 1.000     19.538  23.000
   74 2.650 2.292  3.008 1.000 1.00000 2.650 1.000      2.583  23.000
   75 2.650 2.292  3.008 1.000 1.00000 2.650 1.000      1.869  23.000
   76 2.670 2.310  3.030 1.000 1.00000 2.670 1.000      2.417  23.000
   77 2.640 2.283  2.997 1.000 1.00000 2.640 1.000      0.333  23.000
   78 2.720 2.355  3.085 1.000 1.00000 2.720 1.000     26.976  23.000
   79 2.650 2.292  3.008 1.000 1.00000 2.650 1.000      8.678  23.000
   80 2.690 2.328  3.052 1.000 1.00000 2.690 1.000     15.883  23.000
   81 2.720 2.355  3.085 1.000 1.00000 2.720 1.000     18.882  23.000
   82 2.640 2.283  2.997 1.000 1.00000 2.640 1.000      3.008  23.000
   83 2.650 2.292  3.008 1.000 1.00000 2.650 1.000      6.272  23.000
   84 2.650 2.292  3.008 1.000 1.00000 2.650 1.000      5.612  23.000
   85 2.660 2.301  3.019 1.000 1.00000 2.660 1.000      1.487  23.000
   86 2.650 2.292  3.008 1.000 1.00000 2.650 1.000      1.786  23.000
   87 2.710 2.346  3.074 1.000 1.00000 2.710 1.000     20.320  23.000
   88 2.660 2.301  3.019 1.000 1.00000 2.660 1.000      7.380  23.000
   89 2.760 2.392  3.128 1.000 1.00000 2.760 1.000     61.245  23.000
   90 2.710 2.346  3.074 1.000 1.00000 2.710 1.000     15.885  23.000
   91 2.650 2.292  3.008 1.000 1.00000 2.650 1.000      0.753  23.000
   92 2.650 2.292  3.008 1.000 1.00000 2.650 1.000      1.880  23.000
   93 2.660 2.301  3.019 1.000 1.00000 2.660 1.000      4.212  23.000
   94 2.670 2.310  3.030 1.000 1.00000 2.670 1.000     10.202  23.000
   95 2.630 2.274  2.986 1.000 1.00000 2.630 1.000      0.794  23.000
   96 2.670 2.310  3.030 1.000 1.00000 2.670 1.000      8.796  23.000
   97 2.610 2.256  2.964 1.000 1.00000 2.610 1.000      0.141  23.000
   98 2.660 2.301  3.019 1.000 1.00000 2.660 1.000     11.378  23.000
   99 2.590 2.238  2.942 1.000 1.00000 2.590 1.000      0.348  23.000
  100 2.680 2.319  3.041 1.000 1.00000 2.680 1.000     14.111  23.000
  101 2.660 2.301  3.019 1.000 1.00000 2.660 1.000      8.310  23.000
  102 2.620 2.265  2.975 1.000 1.00000 2.620 1.000      0.359  23.000
  103 2.660 2.301  3.019 1.000 1.00000 2.660 1.000      5.395  23.000
  104 2.650 2.292  3.008 1.000 1.00000 2.650 1.000      1.322  23.000
  105 2.650 2.292  3.008 1.000 1.00000 2.650 1.000      2.086  23.000
  106 2.660 2.301  3.019 1.000 1.00000 2.660 1.000      9.529  23.000
  107 2.660 2.301  3.019 1.000 1.00000 2.660 1.000      1.751  23.000
  108 2.780 2.410  3.150 1.000 1.00000 2.780 1.000     86.579  23.000
  109 2.680 2.319  3.041 1.000 1.00000 2.680 1.000     12.132  23.000
  110 2.630 2.274  2.986 1.000 1.00000 2.630 1.000      3.807  23.000
  111 2.630 2.274  2.986 1.000 1.00000 2.630 1.000      0.330  23.000
  112 2.650 2.292  3.008 1.000 1.00000 2.650 1.000      1.303  23.000
  113 2.650 2.292  3.008 1.000 1.00000 2.650 1.000      3.274  23.000
  114 2.670 2.310  3.030 1.000 1.00000 2.670 1.000      7.604  23.000
  115 2.560 2.211  2.909 1.000 1.00000 2.560 1.000      0.607  23.000
  116 2.650 2.292  3.008 1.000 1.00000 2.650 1.000      3.427  23.000
  117 2.670 2.310  3.030 1.000 1.00000 2.670 1.000      8.102  23.000
  118 2.680 2.319  3.041 1.000 1.00000 2.680 1.000      3.901  23.000
  119 2.680 2.319  3.041 1.000 1.00000 2.680 1.000      6.427  23.000
  120 2.660 2.301  3.019 1.000 1.00000 2.660 1.000      3.758  23.000
  121 2.650 2.292  3.008 1.000 1.00000 2.650 1.000      2.213  23.000
  122 2.570 2.220  2.920 1.000 1.00000 2.570 1.000      0.252  23.000
  123 2.600 2.247  2.953 1.000 1.00000 2.600 1.000      1.088  23.000
  124 2.660 2.301  3.019 1.000 1.00000 2.660 1.000      7.113  23.000
  125 2.720 2.355  3.085 1.000 1.00000 2.720 1.000     13.343  23.000
  126 2.660 2.301  3.019 1.000 1.00000 2.660 1.000      9.809  23.000
  127 2.720 2.355  3.085 1.000 1.00000 2.720 1.000     38.887  23.000
  128 2.690 2.328  3.052 1.000 1.00000 2.690 1.000     19.815  23.000
  129 2.620 2.265  2.975 1.000 1.00000 2.620 1.000      0.267  23.000
  130 2.660 2.301  3.019 1.000 1.00000 2.660 1.000      5.508  23.000
  131 2.660 2.301  3.019 1.000 1.00000 2.660 1.000      4.678  23.000
  132 2.660 2.301  3.019 1.000 1.00000 2.660 1.000      3.560  23.000
  133 2.690 2.328  3.052 1.000 1.00000 2.690 1.000     31.303  23.000
  134 2.710 2.346  3.074 1.000 1.00000 2.710 1.000     15.959  23.000
  135 2.650 2.292  3.008 1.000 1.00000 2.650 1.000      5.201  23.000
  136 2.640 2.283  2.997 1.000 1.00000 2.640 1.000      0.369  23.000
  137 2.660 2.301  3.019 1.000 1.00000 2.660 1.000      1.630  23.000
  138 2.660 2.301  3.019 1.000 1.00000 2.660 1.000      9.943  23.000
  139 2.690 2.328  3.052 1.000 1.00000 2.690 1.000     21.279  23.000
  140 2.680 2.319  3.041 1.000 1.00000 2.680 1.000     17.174  23.000
  141 2.740 2.373  3.107 1.000 1.00000 2.740 1.000     46.320  23.000
  142 2.650 2.292  3.008 1.000 1.00000 2.650 1.000      1.179  23.000
  143 2.710 2.346  3.074 1.000 1.00000 2.710 1.000      3.717  23.000
  144 2.650 2.292  3.008 1.000 1.00000 2.650 1.000      1.053  23.000
  145 2.660 2.301  3.019 1.000 1.00000 2.660 1.000      7.136  23.000
  146 2.650 2.292  3.008 1.000 1.00000 2.650 1.000      7.680  23.000
  147 2.640 2.283  2.997 1.000 1.00000 2.640 1.000      0.806  23.000
  148 2.680 2.319  3.041 1.000 1.00000 2.680 1.000     10.069  23.000
  149 2.650 2.292  3.008 1.000 1.00000 2.650 1.000      2.869  23.000
  150 2.650 2.292  3.008 1.000 1.00000 2.650 1.000      4.451  23.000
  151 2.650 2.292  3.008 1.000 1.00000 2.650 1.000      2.876  23.000
  152 2.600 2.247  2.953 1.000 1.00000 2.600 1.000      0.838  23.000
  153 2.650 2.292  3.008 1.000 1.00000 2.650 1.000      6.367  23.000
  154 2.690 2.328  3.052 1.000 1.00000 2.690 1.000     16.082  23.000
  155 2.650 2.292  3.008 1.000 1.00000 2.650 1.000      2.887  23.000
  156 2.680 2.319  3.041 1.000 1.00000 2.680 1.000      6.448  23.000
  157 2.640 2.283  2.997 1.000 1.00000 2.640 1.000      2.786  23.000
  158 2.650 2.292  3.008 1.000 1.00000 2.650 1.000      6.929  23.000
  159 2.680 2.319  3.041 1.000 1.00000 2.680 1.000      4.512  23.000
  160 2.620 2.265  2.975 1.000 1.00000 2.620 1.000      1.085  23.000
  161 2.750 2.383  3.117 1.000 1.00000 2.750 1.000     35.372  23.000
  162 2.650 2.292  3.008 1.000 1.00000 2.650 1.000      6.583  23.000
  163 2.710 2.346  3.074 1.000 1.00000 2.710 1.000     11.838  23.000
  164 2.640 2.283  2.997 1.000 1.00000 2.640 1.000      1.227  23.000
  165 2.650 2.292  3.008 1.000 1.00000 2.650 1.000     11.191  23.000
  166 2.670 2.310  3.030 1.000 1.00000 2.670 1.000      4.273  23.000
  167 2.600 2.247  2.953 1.000 1.00000 2.600 1.000      0.233  23.000
  168 2.640 2.283  2.997 1.000 1.00000 2.640 1.000      3.976  23.000
  169 2.650 2.292  3.008 1.000 1.00000 2.650 1.000      4.694  23.000
  170 2.660 2.301  3.019 1.000 1.00000 2.660 1.000     11.033  23.000
  171 2.680 2.319  3.041 1.000 1.00000 2.680 1.000     20.801  23.000
  172 2.670 2.310  3.030 1.000 1.00000 2.670 1.000      1.119  23.000
  173 2.660 2.301  3.019 1.000 1.00000 2.660 1.000     13.772  23.000
  174 2.620 2.265  2.975 1.000 1.00000 2.620 1.000      1.286  23.000
  175 2.650 2.292  3.008 1.000 1.00000 2.650 1.000      2.198  23.000
  176 2.630 2.274  2.986 1.000 1.00000 2.630 1.000      0.812  23.000
  177 2.650 2.292  3.008 1.000 1.00000 2.650 1.000      2.163  23.000
  178 2.720 2.355  3.085 1.000 1.00000 2.720 1.000     11.366  23.000
  179 2.710 2.346  3.074 1.000 1.00000 2.710 1.000     15.348  23.000
  180 2.660 2.301  3.019 1.000 1.00000 2.660 1.000      5.543  23.000
  181 2.660 2.301  3.019 1.000 1.00000 2.660 1.000      8.021  23.000
  182 2.650 2.292  3.008 1.000 1.00000 2.650 1.000      5.488  23.000
  183 2.680 2.319  3.041 1.000 1.00000 2.680 1.000      6.871  23.000
  184 2.620 2.265  2.975 1.000 1.00000 2.620 1.000      2.270  23.000
  185 2.650 2.292  3.008 1.000 1.00000 2.650 1.000      5.576  23.000
  186 2.670 2.310  3.030 1.000 1.00000 2.670 1.000     12.951  23.000
  187 2.660 2.301  3.019 1.000 1.00000 2.660 1.000     21.389  23.000
  188 2.680 2.319  3.041 1.000 1.00000 2.680 1.000     13.978  23.000
  189 2.630 2.274  2.986 1.000 1.00000 2.630 1.000      0.956  23.000
  190 2.690 2.328  3.052 1.000 1.00000 2.690 1.000      3.761  23.000
  191 2.670 2.310  3.030 1.000 1.00000 2.670 1.000     14.773  23.000
  192 2.730 2.364  3.096 1.000 1.00000 2.730 1.000     38.847  23.000
  193 2.650 2.292  3.008 1.000 1.00000 2.650 1.000      0.740  23.000
  194 2.660 2.301  3.019 1.000 1.00000 2.660 1.000     12.008  23.000
  195 2.650 2.292  3.008 1.000 1.00000 2.650 1.000      1.960  23.000
  196 2.740 2.373  3.107 1.000 1.00000 2.740 1.000     35.602  23.000
  197 2.620 2.265  2.975 1.000 1.00000 2.620 1.000      0.410  23.000
  198 2.650 2.292  3.008 1.000 1.00000 2.650 1.000      2.619  23.000
  199 2.650 2.292  3.008 1.000 1.00000 2.650 1.000      5.423  23.000
  200 2.660 2.301  3.019 1.000 1.00000 2.660 1.000      8.358  23.000
