## File LOS/SB2_B2004a_2.1z_Mags_200.bpz  Fri Aug 12 23:37:02 2016
##
##Parameters used to run BPZ:
##
##AB_DIR=/home/lidenscheng/bpz-1.99.3//AB/
##ADD_CONTINUOUS_PROB=None
##ADD_SPEC_PROB=None
##CHECK=LOS/SB2_B2004a_2.1z_Mags_200.flux_comparison
##COLOR=no
##COLUMNS=losNoErrors.columns
##CONVOLVE_P=yes
##DELTA_M_0=0.0
##DZ=0.01
##EXCLUDE=none
##FC=None
##FILTER_DIR=/home/lidenscheng/MK_DirectSim/filters/
##GET_Z=yes
##INPUT=LOS/SB2_B2004a_2.1z_Mags_200.txt
##INTERACTIVE=yes
##INTERP=0
##MADAU=no
##MAG=yes
##MEAN_IGM=yes
##MERGE_PEAKS=no
##MIN_MAGERR=0.001
##MIN_RMS=0.05
##NEW_AB=no
##NMAX=None
##NTYPES=None
##N_PEAKS=1
##ODDS=0.95
##ONLY_TYPE=no
##OUTPUT=LOS/SB2_B2004a_2.1z_Mags_200.bpz
##PHOTO_ERRORS=no
##PLOTS=no
##PRIOR=none
##PROBS=no
##PROBS2=no
##PROBS_LITE=LOS/SB2_B2004a_2.1z_Mags_200.probs
##P_MIN=0.01
##SED_DIR=/home/lidenscheng/MK_DirectSim/SEDs/
##SPECTRA=SB2.list
##VERBOSE=yes
##ZC=None
##ZMAX=10.0
##ZMIN=0.01
##ZP_OFFSETS=0.0
##Z_THR=0
##
##Column information
##
# 1 ID
# 2 Z_B
# 3 Z_B_MIN
# 4 Z_B_MAX
# 5 T_B
# 6 ODDS    
# 7 Z_ML
# 8 T_ML
# 9 CHI-SQUARED
# 10 M_0
##
    1 2.130 1.823  2.437 1.000 1.00000 2.130 1.000      4.870  23.000
    2 2.150 1.841  2.459 1.000 1.00000 2.150 1.000      2.537  23.000
    3 2.150 1.841  2.459 1.000 1.00000 2.150 1.000      3.352  23.000
    4 2.130 1.823  2.437 1.000 1.00000 2.130 1.000      3.663  23.000
    5 2.160 1.850  2.470 1.000 1.00000 2.160 1.000      3.620  23.000
    6 2.130 1.823  2.437 1.000 1.00000 2.130 1.000      4.256  23.000
    7 2.130 1.823  2.437 1.000 1.00000 2.130 1.000      3.715  23.000
    8 2.160 1.850  2.470 1.000 1.00000 2.160 1.000      3.376  23.000
    9 2.270 1.950  2.590 1.000 1.00000 2.260 1.000     26.397  23.000
   10 2.110 1.805  2.415 1.000 1.00000 2.120 1.000      9.925  23.000
   11 2.120 1.814  2.426 1.000 1.00000 2.130 1.000      6.033  23.000
   12 2.150 1.841  2.459 1.000 1.00000 2.150 1.000      3.209  23.000
   13 2.140 1.832  2.448 1.000 1.00000 2.150 1.000      2.174  23.000
   14 2.150 1.841  2.459 1.000 1.00000 2.150 1.000      2.289  23.000
   15 2.150 1.841  2.459 1.000 1.00000 2.150 1.000      2.321  23.000
   16 2.100 1.796  2.404 1.000 1.00000 2.100 1.000     13.197  23.000
   17 2.170 1.859  2.481 1.000 1.00000 2.170 1.000      2.096  23.000
   18 2.260 1.941  2.579 1.000 1.00000 2.260 1.000     12.285  23.000
   19 2.190 1.877  2.503 1.000 1.00000 2.190 1.000      3.200  23.000
   20 2.170 1.859  2.481 1.000 1.00000 2.160 1.000      1.862  23.000
   21 2.150 1.841  2.459 1.000 1.00000 2.150 1.000      2.067  23.000
   22 2.170 1.859  2.481 1.000 1.00000 2.170 1.000      1.873  23.000
   23 2.210 1.895  2.525 1.000 1.00000 2.210 1.000      8.725  23.000
   24 2.210 1.895  2.525 1.000 1.00000 2.210 1.000      6.743  23.000
   25 2.190 1.877  2.503 1.000 1.00000 2.190 1.000      3.503  23.000
   26 2.140 1.832  2.448 1.000 1.00000 2.150 1.000      2.103  23.000
   27 2.160 1.850  2.470 1.000 1.00000 2.160 1.000      3.337  23.000
   28 2.130 1.823  2.437 1.000 1.00000 2.130 1.000      3.715  23.000
   29 2.150 1.841  2.459 1.000 1.00000 2.150 1.000      2.595  23.000
   30 2.130 1.823  2.437 1.000 1.00000 2.130 1.000      3.545  23.000
   31 2.140 1.832  2.448 1.000 1.00000 2.150 1.000      2.180  23.000
   32 2.190 1.877  2.503 1.000 1.00000 2.190 1.000      4.310  23.000
   33 2.150 1.841  2.459 1.000 1.00000 2.150 1.000      2.281  23.000
   34 2.140 1.832  2.448 1.000 1.00000 2.130 1.000      2.657  23.000
   35 2.200 1.886  2.514 1.000 1.00000 2.200 1.000      5.001  23.000
   36 2.160 1.850  2.470 1.000 1.00000 2.160 1.000      5.021  23.000
   37 2.200 1.886  2.514 1.000 1.00000 2.210 1.000      6.439  23.000
   38 2.150 1.841  2.459 1.000 1.00000 2.150 1.000      2.050  23.000
   39 2.180 1.868  2.492 1.000 1.00000 2.180 1.000      2.665  23.000
   40 2.140 1.832  2.448 1.000 1.00000 2.140 1.000      2.436  23.000
   41 2.180 1.868  2.492 1.000 1.00000 2.180 1.000      2.807  23.000
   42 2.160 1.850  2.470 1.000 1.00000 2.160 1.000      2.169  23.000
   43 2.160 1.850  2.470 1.000 1.00000 2.160 1.000      4.113  23.000
   44 2.130 1.823  2.437 1.000 1.00000 2.130 1.000      2.958  23.000
   45 2.140 1.832  2.448 1.000 1.00000 2.150 1.000      2.383  23.000
   46 2.170 1.859  2.481 1.000 1.00000 2.160 1.000      1.847  23.000
   47 2.140 1.832  2.448 1.000 1.00000 2.140 1.000      2.579  23.000
   48 2.140 1.832  2.448 1.000 1.00000 2.150 1.000      2.192  23.000
   49 2.140 1.832  2.448 1.000 1.00000 2.150 1.000      2.072  23.000
   50 2.140 1.832  2.448 1.000 1.00000 2.140 1.000      2.476  23.000
   51 2.150 1.841  2.459 1.000 1.00000 2.150 1.000      2.747  23.000
   52 2.170 1.859  2.481 1.000 1.00000 2.170 1.000      2.035  23.000
   53 2.130 1.823  2.437 1.000 1.00000 2.130 1.000      3.993  23.000
   54 2.160 1.850  2.470 1.000 1.00000 2.160 1.000      3.770  23.000
   55 2.260 1.941  2.579 1.000 1.00000 2.260 1.000     16.097  23.000
   56 2.130 1.823  2.437 1.000 1.00000 2.130 1.000      3.545  23.000
   57 2.120 1.814  2.426 1.000 1.00000 2.130 1.000      5.944  23.000
   58 2.150 1.841  2.459 1.000 1.00000 2.150 1.000      3.262  23.000
   59 2.260 1.941  2.579 1.000 1.00000 2.260 1.000     14.064  23.000
   60 2.150 1.841  2.459 1.000 1.00000 2.150 1.000      4.746  23.000
   61 2.190 1.877  2.503 1.000 1.00000 2.190 1.000      3.553  23.000
   62 2.150 1.841  2.459 1.000 1.00000 2.150 1.000      2.694  23.000
   63 2.150 1.841  2.459 1.000 1.00000 2.150 1.000      5.019  23.000
   64 2.150 1.841  2.459 1.000 1.00000 2.150 1.000      2.537  23.000
   65 2.260 1.941  2.579 1.000 1.00000 2.260 1.000     12.772  23.000
   66 2.140 1.832  2.448 1.000 1.00000 2.140 1.000      2.570  23.000
   67 2.130 1.823  2.437 1.000 1.00000 2.130 1.000      4.451  23.000
   68 2.320 1.995  2.645 1.000 1.00000 2.340 1.000     50.586  23.000
   69 2.170 1.859  2.481 1.000 1.00000 2.160 1.000      1.891  23.000
   70 2.220 1.904  2.536 1.000 1.00000 2.260 1.000     11.871  23.000
   71 2.110 1.805  2.415 1.000 1.00000 2.100 1.000     10.377  23.000
   72 2.160 1.850  2.470 1.000 1.00000 2.160 1.000      4.938  23.000
   73 2.160 1.850  2.470 1.000 1.00000 2.160 1.000      4.161  23.000
   74 2.160 1.850  2.470 1.000 1.00000 2.160 1.000      4.161  23.000
   75 2.130 1.823  2.437 1.000 1.00000 2.130 1.000      4.320  23.000
   76 2.120 1.814  2.426 1.000 1.00000 2.120 1.000      7.057  23.000
   77 2.150 1.841  2.459 1.000 1.00000 2.150 1.000      3.684  23.000
   78 2.140 1.832  2.448 1.000 1.00000 2.150 1.000      2.055  23.000
   79 2.160 1.850  2.470 1.000 1.00000 2.160 1.000      2.400  23.000
   80 2.150 1.841  2.459 1.000 1.00000 2.150 1.000      3.623  23.000
   81 2.150 1.841  2.459 1.000 1.00000 2.150 1.000      4.265  23.000
   82 2.170 1.859  2.481 1.000 1.00000 2.160 1.000      1.842  23.000
   83 2.150 1.841  2.459 1.000 1.00000 2.150 1.000      2.888  23.000
   84 2.140 1.832  2.448 1.000 1.00000 2.130 1.000      2.755  23.000
   85 2.150 1.841  2.459 1.000 1.00000 2.150 1.000      3.523  23.000
   86 2.160 1.850  2.470 1.000 1.00000 2.160 1.000      4.234  23.000
   87 2.140 1.832  2.448 1.000 1.00000 2.140 1.000      2.469  23.000
   88 2.150 1.841  2.459 1.000 1.00000 2.150 1.000      2.383  23.000
   89 2.150 1.841  2.459 1.000 1.00000 2.150 1.000      2.092  23.000
   90 2.200 1.886  2.514 1.000 1.00000 2.200 1.000      4.486  23.000
   91 2.150 1.841  2.459 1.000 1.00000 2.150 1.000      4.720  23.000
   92 2.120 1.814  2.426 1.000 1.00000 2.120 1.000      7.245  23.000
   93 2.100 1.796  2.404 1.000 1.00000 2.100 1.000     12.467  23.000
   94 2.160 1.850  2.470 1.000 1.00000 2.160 1.000      3.260  23.000
   95 2.180 1.868  2.492 1.000 1.00000 2.180 1.000      2.560  23.000
   96 2.160 1.850  2.470 1.000 1.00000 2.160 1.000      2.412  23.000
   97 2.140 1.832  2.448 1.000 1.00000 2.140 1.000      2.570  23.000
   98 2.170 1.859  2.481 1.000 1.00000 2.170 1.000      2.139  23.000
   99 2.260 1.941  2.579 1.000 1.00000 2.260 1.000     17.973  23.000
  100 2.140 1.832  2.448 1.000 1.00000 2.150 1.000      2.186  23.000
  101 2.150 1.841  2.459 1.000 1.00000 2.150 1.000      4.362  23.000
  102 2.200 1.886  2.514 1.000 1.00000 2.210 1.000      6.306  23.000
  103 2.140 1.832  2.448 1.000 1.00000 2.150 1.000      2.103  23.000
  104 2.130 1.823  2.437 1.000 1.00000 2.130 1.000      4.277  23.000
  105 2.140 1.832  2.448 1.000 1.00000 2.130 1.000      2.678  23.000
  106 2.150 1.841  2.459 1.000 1.00000 2.150 1.000      4.289  23.000
  107 2.140 1.832  2.448 1.000 1.00000 2.140 1.000      2.449  23.000
  108 2.220 1.904  2.536 1.000 1.00000 2.210 1.000     11.117  23.000
  109 2.170 1.859  2.481 1.000 1.00000 2.160 1.000      1.844  23.000
  110 2.150 1.841  2.459 1.000 1.00000 2.150 1.000      2.483  23.000
  111 2.180 1.868  2.492 1.000 1.00000 2.180 1.000      2.427  23.000
  112 2.140 1.832  2.448 1.000 1.00000 2.140 1.000      2.521  23.000
  113 2.150 1.841  2.459 1.000 1.00000 2.150 1.000      2.103  23.000
  114 2.150 1.841  2.459 1.000 1.00000 2.150 1.000      2.119  23.000
  115 2.150 1.841  2.459 1.000 1.00000 2.150 1.000      3.408  23.000
  116 2.200 1.886  2.514 1.000 1.00000 2.200 1.000      4.843  23.000
  117 2.160 1.850  2.470 1.000 1.00000 2.160 1.000      3.705  23.000
  118 2.170 1.859  2.481 1.000 1.00000 2.170 1.000      1.848  23.000
  119 2.180 1.868  2.492 1.000 1.00000 2.170 1.000      2.275  23.000
  120 2.120 1.814  2.426 1.000 1.00000 2.130 1.000      5.742  23.000
  121 2.150 1.841  2.459 1.000 1.00000 2.150 1.000      2.994  23.000
  122 2.150 1.841  2.459 1.000 1.00000 2.150 1.000      3.563  23.000
  123 2.190 1.877  2.503 1.000 1.00000 2.190 1.000      3.692  23.000
  124 2.150 1.841  2.459 1.000 1.00000 2.150 1.000      3.107  23.000
  125 2.150 1.841  2.459 1.000 1.00000 2.150 1.000      2.888  23.000
  126 2.160 1.850  2.470 1.000 1.00000 2.160 1.000      3.113  23.000
  127 2.180 1.868  2.492 1.000 1.00000 2.180 1.000      2.702  23.000
  128 2.210 1.895  2.525 1.000 1.00000 2.210 1.000      8.089  23.000
  129 2.140 1.832  2.448 1.000 1.00000 2.130 1.000      2.854  23.000
  130 2.130 1.823  2.437 1.000 1.00000 2.130 1.000      3.954  23.000
  131 2.150 1.841  2.459 1.000 1.00000 2.150 1.000      3.810  23.000
  132 2.170 1.859  2.481 1.000 1.00000 2.160 1.000      1.842  23.000
  133 2.150 1.841  2.459 1.000 1.00000 2.150 1.000      2.297  23.000
  134 2.140 1.832  2.448 1.000 1.00000 2.150 1.000      2.048  23.000
  135 2.180 1.868  2.492 1.000 1.00000 2.180 1.000      2.465  23.000
  136 2.170 1.859  2.481 1.000 1.00000 2.160 1.000      1.847  23.000
  137 2.140 1.832  2.448 1.000 1.00000 2.130 1.000      2.798  23.000
  138 2.150 1.841  2.459 1.000 1.00000 2.150 1.000      2.054  23.000
  139 2.150 1.841  2.459 1.000 1.00000 2.150 1.000      2.273  23.000
  140 2.160 1.850  2.470 1.000 1.00000 2.160 1.000      2.287  23.000
  141 2.130 1.823  2.437 1.000 1.00000 2.130 1.000      3.750  23.000
  142 2.260 1.941  2.579 1.000 1.00000 2.260 1.000     11.898  23.000
  143 2.140 1.832  2.448 1.000 1.00000 2.130 1.000      2.730  23.000
  144 2.140 1.832  2.448 1.000 1.00000 2.150 1.000      2.198  23.000
  145 2.170 1.859  2.481 1.000 1.00000 2.170 1.000      2.105  23.000
  146 2.160 1.850  2.470 1.000 1.00000 2.160 1.000      4.042  23.000
  147 2.150 1.841  2.459 1.000 1.00000 2.150 1.000      2.077  23.000
  148 2.210 1.895  2.525 1.000 1.00000 2.210 1.000      7.124  23.000
  149 2.120 1.814  2.426 1.000 1.00000 2.120 1.000      8.908  23.000
  150 2.170 1.859  2.481 1.000 1.00000 2.160 1.000      1.856  23.000
  151 2.100 1.796  2.404 1.000 1.00000 2.100 1.000     14.428  23.000
  152 2.150 1.841  2.459 1.000 1.00000 2.150 1.000      3.919  23.000
  153 2.130 1.823  2.437 1.000 1.00000 2.130 1.000      3.149  23.000
  154 2.100 1.796  2.404 1.000 1.00000 2.100 1.000     15.346  23.000
  155 2.130 1.823  2.437 1.000 1.00000 2.130 1.000      3.271  23.000
  156 2.160 1.850  2.470 1.000 1.00000 2.160 1.000      4.090  23.000
  157 2.150 1.841  2.459 1.000 1.00000 2.150 1.000      4.462  23.000
  158 2.170 1.859  2.481 1.000 1.00000 2.170 1.000      1.838  23.000
  159 2.120 1.814  2.426 1.000 1.00000 2.120 1.000      7.438  23.000
  160 2.160 1.850  2.470 1.000 1.00000 2.160 1.000      3.395  23.000
  161 2.170 1.859  2.481 1.000 1.00000 2.160 1.000      1.860  23.000
  162 2.150 1.841  2.459 1.000 1.00000 2.150 1.000      2.048  23.000
  163 2.140 1.832  2.448 1.000 1.00000 2.150 1.000      2.075  23.000
  164 2.160 1.850  2.470 1.000 1.00000 2.160 1.000      4.510  23.000
  165 2.150 1.841  2.459 1.000 1.00000 2.150 1.000      2.347  23.000
  166 2.190 1.877  2.503 1.000 1.00000 2.190 1.000      3.587  23.000
  167 2.160 1.850  2.470 1.000 1.00000 2.160 1.000      4.433  23.000
  168 2.140 1.832  2.448 1.000 1.00000 2.150 1.000      2.119  23.000
  169 2.160 1.850  2.470 1.000 1.00000 2.160 1.000      3.298  23.000
  170 2.160 1.850  2.470 1.000 1.00000 2.160 1.000      3.837  23.000
  171 2.140 1.832  2.448 1.000 1.00000 2.130 1.000      2.826  23.000
  172 2.150 1.841  2.459 1.000 1.00000 2.150 1.000      4.123  23.000
  173 2.110 1.805  2.415 1.000 1.00000 2.120 1.000      9.406  23.000
  174 2.160 1.850  2.470 1.000 1.00000 2.160 1.000      2.448  23.000
  175 2.110 1.805  2.415 1.000 1.00000 2.100 1.000      9.994  23.000
  176 2.130 1.823  2.437 1.000 1.00000 2.130 1.000      3.841  23.000
  177 2.160 1.850  2.470 1.000 1.00000 2.160 1.000      2.109  23.000
  178 2.140 1.832  2.448 1.000 1.00000 2.130 1.000      2.671  23.000
  179 2.170 1.859  2.481 1.000 1.00000 2.160 1.000      1.845  23.000
  180 2.130 1.823  2.437 1.000 1.00000 2.130 1.000      5.250  23.000
  181 2.170 1.859  2.481 1.000 1.00000 2.160 1.000      1.906  23.000
  182 2.160 1.850  2.470 1.000 1.00000 2.160 1.000      2.388  23.000
  183 2.170 1.859  2.481 1.000 1.00000 2.160 1.000      1.953  23.000
  184 2.150 1.841  2.459 1.000 1.00000 2.150 1.000      2.305  23.000
  185 2.150 1.841  2.459 1.000 1.00000 2.150 1.000      4.854  23.000
  186 2.150 1.841  2.459 1.000 1.00000 2.150 1.000      2.330  23.000
  187 2.170 1.859  2.481 1.000 1.00000 2.160 1.000      1.851  23.000
  188 2.150 1.841  2.459 1.000 1.00000 2.150 1.000      4.362  23.000
  189 2.130 1.823  2.437 1.000 1.00000 2.130 1.000      2.915  23.000
  190 2.130 1.823  2.437 1.000 1.00000 2.130 1.000      3.513  23.000
  191 2.140 1.832  2.448 1.000 1.00000 2.140 1.000      2.491  23.000
  192 2.150 1.841  2.459 1.000 1.00000 2.150 1.000      2.157  23.000
  193 2.160 1.850  2.470 1.000 1.00000 2.160 1.000      2.941  23.000
  194 2.120 1.814  2.426 1.000 1.00000 2.120 1.000      7.735  23.000
  195 2.170 1.859  2.481 1.000 1.00000 2.170 1.000      2.028  23.000
  196 2.160 1.850  2.470 1.000 1.00000 2.160 1.000      3.395  23.000
  197 2.170 1.859  2.481 1.000 1.00000 2.170 1.000      2.042  23.000
  198 2.260 1.941  2.579 1.000 1.00000 2.260 1.000     13.993  23.000
  199 2.120 1.814  2.426 1.000 1.00000 2.130 1.000      5.658  23.000
  200 2.160 1.850  2.470 1.000 1.00000 2.160 1.000      3.167  23.000
