## File LOS/SB2_B2004a_2.8z_Mags_300.bpz  Fri Aug 12 23:37:30 2016
##
##Parameters used to run BPZ:
##
##AB_DIR=/home/lidenscheng/bpz-1.99.3//AB/
##ADD_CONTINUOUS_PROB=None
##ADD_SPEC_PROB=None
##CHECK=LOS/SB2_B2004a_2.8z_Mags_300.flux_comparison
##COLOR=no
##COLUMNS=losNoErrors.columns
##CONVOLVE_P=yes
##DELTA_M_0=0.0
##DZ=0.01
##EXCLUDE=none
##FC=None
##FILTER_DIR=/home/lidenscheng/MK_DirectSim/filters/
##GET_Z=yes
##INPUT=LOS/SB2_B2004a_2.8z_Mags_300.txt
##INTERACTIVE=yes
##INTERP=0
##MADAU=no
##MAG=yes
##MEAN_IGM=yes
##MERGE_PEAKS=no
##MIN_MAGERR=0.001
##MIN_RMS=0.05
##NEW_AB=no
##NMAX=None
##NTYPES=None
##N_PEAKS=1
##ODDS=0.95
##ONLY_TYPE=no
##OUTPUT=LOS/SB2_B2004a_2.8z_Mags_300.bpz
##PHOTO_ERRORS=no
##PLOTS=no
##PRIOR=none
##PROBS=no
##PROBS2=no
##PROBS_LITE=LOS/SB2_B2004a_2.8z_Mags_300.probs
##P_MIN=0.01
##SED_DIR=/home/lidenscheng/MK_DirectSim/SEDs/
##SPECTRA=SB2.list
##VERBOSE=yes
##ZC=None
##ZMAX=10.0
##ZMIN=0.01
##ZP_OFFSETS=0.0
##Z_THR=0
##
##Column information
##
# 1 ID
# 2 Z_B
# 3 Z_B_MIN
# 4 Z_B_MAX
# 5 T_B
# 6 ODDS    
# 7 Z_ML
# 8 T_ML
# 9 CHI-SQUARED
# 10 M_0
##
    1 2.930 2.545  3.315 1.000 1.00000 2.930 1.000     20.183  23.000
    2 2.930 2.545  3.315 1.000 1.00000 2.930 1.000     42.680  23.000
    3 2.890 2.509  3.271 1.000 1.00000 2.890 1.000     24.898  23.000
    4 2.860 2.482  3.238 1.000 1.00000 2.860 1.000     10.774  23.000
    5 2.850 2.473  3.227 1.000 1.00000 2.850 1.000      2.767  23.000
    6 2.860 2.482  3.238 1.000 1.00000 2.860 1.000      8.253  23.000
    7 2.900 2.518  3.282 1.000 1.00000 2.900 1.000      8.818  23.000
    8 2.900 2.518  3.282 1.000 1.00000 2.900 1.000     10.690  23.000
    9 2.870 2.491  3.249 1.000 1.00000 2.870 1.000      4.229  23.000
   10 2.850 2.473  3.227 1.000 1.00000 2.850 1.000      9.452  23.000
   11 2.930 2.545  3.315 1.000 1.00000 2.930 1.000     52.800  23.000
   12 2.850 2.473  3.227 1.000 1.00000 2.850 1.000      5.103  23.000
   13 2.880 2.500  3.260 1.000 1.00000 2.880 1.000     18.054  23.000
   14 2.950 2.563  3.337 1.000 1.00000 2.950 1.000     16.932  23.000
   15 2.930 2.545  3.315 1.000 1.00000 2.930 1.000     26.892  23.000
   16 2.920 2.536  3.304 1.000 1.00000 2.920 1.000     35.841  23.000
   17 2.910 2.527  3.293 1.000 1.00000 2.910 1.000     25.669  23.000
   18 2.870 2.491  3.249 1.000 1.00000 2.870 1.000      5.121  23.000
   19 2.890 2.509  3.271 1.000 1.00000 2.890 1.000     15.886  23.000
   20 2.900 2.518  3.282 1.000 1.00000 2.900 1.000     27.815  23.000
   21 2.860 2.482  3.238 1.000 1.00000 2.860 1.000     13.045  23.000
   22 2.880 2.500  3.260 1.000 1.00000 2.880 1.000     11.425  23.000
   23 2.860 2.482  3.238 1.000 1.00000 2.860 1.000      9.892  23.000
   24 2.850 2.473  3.227 1.000 1.00000 2.850 1.000     13.255  23.000
   25 2.930 2.545  3.315 1.000 1.00000 2.930 1.000     32.706  23.000
   26 2.910 2.527  3.293 1.000 1.00000 2.910 1.000     25.494  23.000
   27 2.860 2.482  3.238 1.000 1.00000 2.860 1.000      4.284  23.000
   28 2.930 2.545  3.315 1.000 1.00000 2.930 1.000     56.741  23.000
   29 2.920 2.536  3.304 1.000 1.00000 2.920 1.000     20.029  23.000
   30 2.910 2.527  3.293 1.000 1.00000 2.910 1.000     21.596  23.000
   31 2.900 2.518  3.282 1.000 1.00000 2.900 1.000     23.652  23.000
   32 2.860 2.482  3.238 1.000 1.00000 2.860 1.000     10.411  23.000
   33 2.860 2.482  3.238 1.000 1.00000 2.860 1.000      9.666  23.000
   34 2.930 2.545  3.315 1.000 1.00000 2.930 1.000     24.511  23.000
   35 2.920 2.536  3.304 1.000 1.00000 2.920 1.000     17.166  23.000
   36 2.890 2.509  3.271 1.000 1.00000 2.890 1.000     33.539  23.000
   37 2.920 2.536  3.304 1.000 1.00000 2.920 1.000     40.329  23.000
   38 2.940 2.554  3.326 1.000 1.00000 2.940 1.000     55.737  23.000
   39 2.850 2.473  3.227 1.000 1.00000 2.850 1.000     23.128  23.000
   40 2.920 2.536  3.304 1.000 1.00000 2.920 1.000     28.380  23.000
   41 2.930 2.545  3.315 1.000 1.00000 2.930 1.000     27.643  23.000
   42 2.950 2.563  3.337 1.000 1.00000 2.950 1.000     41.520  23.000
   43 2.920 2.536  3.304 1.000 1.00000 2.920 1.000     23.086  23.000
   44 2.880 2.500  3.260 1.000 1.00000 2.880 1.000     28.511  23.000
   45 2.850 2.473  3.227 1.000 1.00000 2.850 1.000     19.144  23.000
   46 2.910 2.527  3.293 1.000 1.00000 2.910 1.000     10.747  23.000
   47 2.850 2.473  3.227 1.000 1.00000 2.850 1.000     14.397  23.000
   48 2.890 2.509  3.271 1.000 1.00000 2.890 1.000     10.894  23.000
   49 2.960 2.572  3.348 1.000 1.00000 2.960 1.000     50.892  23.000
   50 2.860 2.482  3.238 1.000 1.00000 2.860 1.000     28.179  23.000
   51 2.900 2.518  3.282 1.000 1.00000 2.900 1.000     15.476  23.000
   52 2.930 2.545  3.315 1.000 1.00000 2.930 1.000     28.330  23.000
   53 2.880 2.500  3.260 1.000 1.00000 2.880 1.000     14.358  23.000
   54 2.890 2.509  3.271 1.000 1.00000 2.890 1.000     14.498  23.000
   55 2.880 2.500  3.260 1.000 1.00000 2.880 1.000     19.607  23.000
   56 2.910 2.527  3.293 1.000 1.00000 2.910 1.000     15.154  23.000
   57 2.850 2.473  3.227 1.000 1.00000 2.850 1.000      3.124  23.000
   58 2.830 2.455  3.205 1.000 1.00000 2.830 1.000      1.885  23.000
   59 2.870 2.491  3.249 1.000 1.00000 2.870 1.000     14.277  23.000
   60 2.880 2.500  3.260 1.000 1.00000 2.880 1.000     20.796  23.000
   61 2.890 2.509  3.271 1.000 1.00000 2.890 1.000     22.451  23.000
   62 2.860 2.482  3.238 1.000 1.00000 2.860 1.000      9.509  23.000
   63 2.880 2.500  3.260 1.000 1.00000 2.880 1.000     25.515  23.000
   64 2.940 2.554  3.326 1.000 1.00000 2.940 1.000     20.864  23.000
   65 2.930 2.545  3.315 1.000 1.00000 2.930 1.000     28.910  23.000
   66 2.860 2.482  3.238 1.000 1.00000 2.860 1.000     10.248  23.000
   67 2.960 2.572  3.348 1.000 1.00000 2.960 1.000     65.907  23.000
   68 2.870 2.491  3.249 1.000 1.00000 2.870 1.000     28.700  23.000
   69 2.870 2.491  3.249 1.000 1.00000 2.870 1.000     19.276  23.000
   70 2.850 2.473  3.227 1.000 1.00000 2.850 1.000     13.666  23.000
   71 2.890 2.509  3.271 1.000 1.00000 2.890 1.000     26.368  23.000
   72 2.890 2.509  3.271 1.000 1.00000 2.890 1.000     17.232  23.000
   73 2.850 2.473  3.227 1.000 1.00000 2.850 1.000      8.387  23.000
   74 2.860 2.482  3.238 1.000 1.00000 2.860 1.000     20.440  23.000
   75 2.850 2.473  3.227 1.000 1.00000 2.850 1.000     22.412  23.000
   76 2.930 2.545  3.315 1.000 1.00000 2.930 1.000     17.487  23.000
   77 2.840 2.464  3.216 1.000 1.00000 2.840 1.000      2.578  23.000
   78 2.920 2.536  3.304 1.000 1.00000 2.920 1.000     16.301  23.000
   79 2.860 2.482  3.238 1.000 1.00000 2.860 1.000     25.364  23.000
   80 2.890 2.509  3.271 1.000 1.00000 2.890 1.000     22.311  23.000
   81 2.870 2.491  3.249 1.000 1.00000 2.870 1.000     11.719  23.000
   82 2.920 2.536  3.304 1.000 1.00000 2.920 1.000     24.635  23.000
   83 2.900 2.518  3.282 1.000 1.00000 2.900 1.000     18.179  23.000
   84 2.850 2.473  3.227 1.000 1.00000 2.850 1.000     14.668  23.000
   85 2.870 2.491  3.249 1.000 1.00000 2.870 1.000     17.394  23.000
   86 2.860 2.482  3.238 1.000 1.00000 2.860 1.000     28.789  23.000
   87 2.870 2.491  3.249 1.000 1.00000 2.870 1.000     22.370  23.000
   88 2.860 2.482  3.238 1.000 1.00000 2.860 1.000      7.202  23.000
   89 2.920 2.536  3.304 1.000 1.00000 2.920 1.000     15.838  23.000
   90 2.860 2.482  3.238 1.000 1.00000 2.860 1.000     13.425  23.000
   91 2.930 2.545  3.315 1.000 1.00000 2.930 1.000     31.680  23.000
   92 2.860 2.482  3.238 1.000 1.00000 2.860 1.000     17.440  23.000
   93 2.960 2.572  3.348 1.000 1.00000 2.960 1.000     41.773  23.000
   94 2.910 2.527  3.293 1.000 1.00000 2.910 1.000     24.646  23.000
   95 2.880 2.500  3.260 1.000 1.00000 2.880 1.000     16.875  23.000
   96 2.900 2.518  3.282 1.000 1.00000 2.900 1.000     14.816  23.000
   97 2.910 2.527  3.293 1.000 1.00000 2.910 1.000     17.511  23.000
   98 2.870 2.491  3.249 1.000 1.00000 2.870 1.000     16.376  23.000
   99 2.850 2.473  3.227 1.000 1.00000 2.850 1.000     25.547  23.000
  100 2.840 2.464  3.216 1.000 1.00000 2.840 1.000      2.518  23.000
  101 2.880 2.500  3.260 1.000 1.00000 2.880 1.000     14.942  23.000
  102 2.890 2.509  3.271 1.000 1.00000 2.890 1.000     29.737  23.000
  103 2.870 2.491  3.249 1.000 1.00000 2.870 1.000     15.891  23.000
  104 2.890 2.509  3.271 1.000 1.00000 2.890 1.000     54.367  23.000
  105 2.900 2.518  3.282 1.000 1.00000 2.900 1.000     38.115  23.000
  106 2.950 2.563  3.337 1.000 1.00000 2.950 1.000     51.075  23.000
  107 2.880 2.500  3.260 1.000 1.00000 2.880 1.000      6.189  23.000
  108 2.890 2.509  3.271 1.000 1.00000 2.890 1.000      7.694  23.000
  109 2.920 2.536  3.304 1.000 1.00000 2.920 1.000     30.161  23.000
  110 2.890 2.509  3.271 1.000 1.00000 2.890 1.000     12.665  23.000
  111 2.890 2.509  3.271 1.000 1.00000 2.890 1.000     41.985  23.000
  112 2.930 2.545  3.315 1.000 1.00000 2.930 1.000     33.707  23.000
  113 2.910 2.527  3.293 1.000 1.00000 2.910 1.000     20.972  23.000
  114 2.860 2.482  3.238 1.000 1.00000 2.860 1.000     20.579  23.000
  115 2.900 2.518  3.282 1.000 1.00000 2.900 1.000     29.548  23.000
  116 2.900 2.518  3.282 1.000 1.00000 2.900 1.000     15.178  23.000
  117 2.920 2.536  3.304 1.000 1.00000 2.920 1.000     21.515  23.000
  118 2.850 2.473  3.227 1.000 1.00000 2.850 1.000     17.869  23.000
  119 2.940 2.554  3.326 1.000 1.00000 2.940 1.000     28.693  23.000
  120 2.880 2.500  3.260 1.000 1.00000 2.880 1.000     41.409  23.000
  121 2.900 2.518  3.282 1.000 1.00000 2.900 1.000     13.461  23.000
  122 2.930 2.545  3.315 1.000 1.00000 2.930 1.000     44.133  23.000
  123 2.940 2.554  3.326 1.000 1.00000 2.940 1.000     17.238  23.000
  124 2.860 2.482  3.238 1.000 1.00000 2.860 1.000     21.823  23.000
  125 2.900 2.518  3.282 1.000 1.00000 2.900 1.000     30.549  23.000
  126 2.860 2.482  3.238 1.000 1.00000 2.860 1.000      5.331  23.000
  127 2.860 2.482  3.238 1.000 1.00000 2.860 1.000      8.379  23.000
  128 2.900 2.518  3.282 1.000 1.00000 2.900 1.000     10.322  23.000
  129 2.920 2.536  3.304 1.000 1.00000 2.920 1.000     39.646  23.000
  130 2.900 2.518  3.282 1.000 1.00000 2.900 1.000     29.544  23.000
  131 2.850 2.473  3.227 1.000 1.00000 2.850 1.000      9.928  23.000
  132 2.890 2.509  3.271 1.000 1.00000 2.890 1.000     12.517  23.000
  133 2.940 2.554  3.326 1.000 1.00000 2.940 1.000     51.726  23.000
  134 2.870 2.491  3.249 1.000 1.00000 2.870 1.000     16.824  23.000
  135 2.860 2.482  3.238 1.000 1.00000 2.860 1.000     10.144  23.000
  136 2.850 2.473  3.227 1.000 1.00000 2.850 1.000     18.952  23.000
  137 2.850 2.473  3.227 1.000 1.00000 2.850 1.000     22.959  23.000
  138 2.870 2.491  3.249 1.000 1.00000 2.870 1.000     22.794  23.000
  139 2.940 2.554  3.326 1.000 1.00000 2.940 1.000     41.823  23.000
  140 2.900 2.518  3.282 1.000 1.00000 2.900 1.000     16.145  23.000
  141 2.900 2.518  3.282 1.000 1.00000 2.900 1.000     33.488  23.000
  142 2.860 2.482  3.238 1.000 1.00000 2.860 1.000     30.961  23.000
  143 2.890 2.509  3.271 1.000 1.00000 2.890 1.000     11.454  23.000
  144 2.870 2.491  3.249 1.000 1.00000 2.870 1.000     22.218  23.000
  145 2.930 2.545  3.315 1.000 1.00000 2.930 1.000     29.804  23.000
  146 2.880 2.500  3.260 1.000 1.00000 2.880 1.000     45.414  23.000
  147 2.860 2.482  3.238 1.000 1.00000 2.860 1.000      6.265  23.000
  148 2.930 2.545  3.315 1.000 1.00000 2.930 1.000     22.058  23.000
  149 2.890 2.509  3.271 1.000 1.00000 2.890 1.000     41.433  23.000
  150 2.870 2.491  3.249 1.000 1.00000 2.870 1.000      9.483  23.000
  151 2.950 2.563  3.337 1.000 1.00000 2.950 1.000     59.537  23.000
  152 2.900 2.518  3.282 1.000 1.00000 2.900 1.000     22.447  23.000
  153 2.850 2.473  3.227 1.000 1.00000 2.850 1.000     15.348  23.000
  154 2.900 2.518  3.282 1.000 1.00000 2.900 1.000     21.701  23.000
  155 2.870 2.491  3.249 1.000 1.00000 2.870 1.000      8.584  23.000
  156 2.950 2.563  3.337 1.000 1.00000 2.950 1.000     64.235  23.000
  157 2.920 2.536  3.304 1.000 1.00000 2.920 1.000     21.977  23.000
  158 2.860 2.482  3.238 1.000 1.00000 2.860 1.000     24.580  23.000
  159 2.850 2.473  3.227 1.000 1.00000 2.850 1.000     11.288  23.000
  160 2.880 2.500  3.260 1.000 1.00000 2.880 1.000     12.650  23.000
  161 2.860 2.482  3.238 1.000 1.00000 2.860 1.000     20.293  23.000
  162 2.930 2.545  3.315 1.000 1.00000 2.930 1.000     15.052  23.000
  163 2.880 2.500  3.260 1.000 1.00000 2.880 1.000     17.432  23.000
  164 2.900 2.518  3.282 1.000 1.00000 2.900 1.000      8.741  23.000
  165 2.860 2.482  3.238 1.000 1.00000 2.860 1.000      5.229  23.000
  166 2.860 2.482  3.238 1.000 1.00000 2.860 1.000     11.710  23.000
  167 2.840 2.464  3.216 1.000 1.00000 2.840 1.000      3.987  23.000
  168 2.860 2.482  3.238 1.000 1.00000 2.860 1.000     18.737  23.000
  169 2.860 2.482  3.238 1.000 1.00000 2.860 1.000     19.340  23.000
  170 2.870 2.491  3.249 1.000 1.00000 2.870 1.000     22.100  23.000
  171 2.890 2.509  3.271 1.000 1.00000 2.890 1.000      6.635  23.000
  172 2.860 2.482  3.238 1.000 1.00000 2.860 1.000      9.314  23.000
  173 2.910 2.527  3.293 1.000 1.00000 2.910 1.000     35.056  23.000
  174 2.970 2.581  3.359 1.000 1.00000 2.970 1.000    125.713  23.000
  175 2.890 2.509  3.271 1.000 1.00000 2.890 1.000      7.885  23.000
  176 2.900 2.518  3.282 1.000 1.00000 2.900 1.000     14.509  23.000
  177 2.860 2.482  3.238 1.000 1.00000 2.860 1.000      8.094  23.000
  178 2.880 2.500  3.260 1.000 1.00000 2.880 1.000     26.880  23.000
  179 2.850 2.473  3.227 1.000 1.00000 2.850 1.000     12.954  23.000
  180 2.950 2.563  3.337 1.000 1.00000 2.950 1.000     28.203  23.000
  181 2.850 2.473  3.227 1.000 1.00000 2.850 1.000      4.163  23.000
  182 2.890 2.509  3.271 1.000 1.00000 2.890 1.000      7.894  23.000
  183 2.890 2.509  3.271 1.000 1.00000 2.890 1.000     10.263  23.000
  184 3.030 2.635  3.425 1.000 1.00000 3.030 1.000    127.342  23.000
  185 2.860 2.482  3.238 1.000 1.00000 2.860 1.000     19.879  23.000
  186 2.900 2.518  3.282 1.000 1.00000 2.900 1.000     29.888  23.000
  187 2.870 2.491  3.249 1.000 1.00000 2.870 1.000     18.177  23.000
  188 2.920 2.536  3.304 1.000 1.00000 2.920 1.000     36.449  23.000
  189 2.930 2.545  3.315 1.000 1.00000 2.930 1.000     23.682  23.000
  190 2.860 2.482  3.238 1.000 1.00000 2.860 1.000      8.263  23.000
  191 2.860 2.482  3.238 1.000 1.00000 2.860 1.000     35.970  23.000
  192 2.860 2.482  3.238 1.000 1.00000 2.860 1.000      5.286  23.000
  193 2.910 2.527  3.293 1.000 1.00000 2.910 1.000     20.051  23.000
  194 2.890 2.509  3.271 1.000 1.00000 2.890 1.000     40.204  23.000
  195 2.910 2.527  3.293 1.000 1.00000 2.910 1.000     14.741  23.000
  196 2.880 2.500  3.260 1.000 1.00000 2.880 1.000     34.414  23.000
  197 2.940 2.554  3.326 1.000 1.00000 2.940 1.000     21.310  23.000
  198 2.920 2.536  3.304 1.000 1.00000 2.920 1.000     22.120  23.000
  199 2.860 2.482  3.238 1.000 1.00000 2.860 1.000     23.755  23.000
  200 2.950 2.563  3.337 1.000 1.00000 2.950 1.000     68.036  23.000
  201 2.870 2.491  3.249 1.000 1.00000 2.870 1.000     34.888  23.000
  202 2.860 2.482  3.238 1.000 1.00000 2.860 1.000      8.086  23.000
  203 2.900 2.518  3.282 1.000 1.00000 2.900 1.000     16.783  23.000
  204 2.920 2.536  3.304 1.000 1.00000 2.920 1.000     17.847  23.000
  205 2.900 2.518  3.282 1.000 1.00000 2.900 1.000     30.702  23.000
  206 2.860 2.482  3.238 1.000 1.00000 2.860 1.000      9.288  23.000
  207 2.870 2.491  3.249 1.000 1.00000 2.870 1.000     10.796  23.000
  208 2.860 2.482  3.238 1.000 1.00000 2.860 1.000      6.578  23.000
  209 2.850 2.473  3.227 1.000 1.00000 2.850 1.000     29.381  23.000
  210 2.870 2.491  3.249 1.000 1.00000 2.870 1.000     30.421  23.000
  211 2.920 2.536  3.304 1.000 1.00000 2.920 1.000     31.358  23.000
  212 2.920 2.536  3.304 1.000 1.00000 2.920 1.000     27.670  23.000
  213 2.900 2.518  3.282 1.000 1.00000 2.900 1.000     17.432  23.000
  214 2.910 2.527  3.293 1.000 1.00000 2.910 1.000     15.152  23.000
  215 2.890 2.509  3.271 1.000 1.00000 2.890 1.000     22.725  23.000
  216 2.860 2.482  3.238 1.000 1.00000 2.860 1.000     15.704  23.000
  217 2.850 2.473  3.227 1.000 1.00000 2.850 1.000     10.747  23.000
  218 2.920 2.536  3.304 1.000 1.00000 2.920 1.000     24.570  23.000
  219 2.870 2.491  3.249 1.000 1.00000 2.870 1.000     20.652  23.000
  220 2.860 2.482  3.238 1.000 1.00000 2.860 1.000      5.034  23.000
  221 2.920 2.536  3.304 1.000 1.00000 2.920 1.000     24.102  23.000
  222 2.850 2.473  3.227 1.000 1.00000 2.850 1.000      8.650  23.000
  223 2.880 2.500  3.260 1.000 1.00000 2.880 1.000     31.758  23.000
  224 2.860 2.482  3.238 1.000 1.00000 2.860 1.000     16.670  23.000
  225 2.870 2.491  3.249 1.000 1.00000 2.870 1.000      7.329  23.000
  226 2.890 2.509  3.271 1.000 1.00000 2.890 1.000     23.548  23.000
  227 2.880 2.500  3.260 1.000 1.00000 2.880 1.000      5.304  23.000
  228 2.940 2.554  3.326 1.000 1.00000 2.940 1.000     45.986  23.000
  229 2.860 2.482  3.238 1.000 1.00000 2.860 1.000     14.021  23.000
  230 2.860 2.482  3.238 1.000 1.00000 2.860 1.000     13.225  23.000
  231 2.920 2.536  3.304 1.000 1.00000 2.920 1.000     16.403  23.000
  232 2.880 2.500  3.260 1.000 1.00000 2.880 1.000      8.038  23.000
  233 2.830 2.455  3.205 1.000 1.00000 2.830 1.000      1.385  23.000
  234 2.900 2.518  3.282 1.000 1.00000 2.900 1.000     17.967  23.000
  235 2.860 2.482  3.238 1.000 1.00000 2.860 1.000     19.442  23.000
  236 2.930 2.545  3.315 1.000 1.00000 2.930 1.000     43.945  23.000
  237 2.930 2.545  3.315 1.000 1.00000 2.930 1.000     14.412  23.000
  238 2.850 2.473  3.227 1.000 1.00000 2.850 1.000     11.057  23.000
  239 2.940 2.554  3.326 1.000 1.00000 2.940 1.000     35.731  23.000
  240 2.870 2.491  3.249 1.000 1.00000 2.870 1.000      4.931  23.000
  241 2.860 2.482  3.238 1.000 1.00000 2.860 1.000     14.525  23.000
  242 2.910 2.527  3.293 1.000 1.00000 2.910 1.000     25.576  23.000
  243 2.880 2.500  3.260 1.000 1.00000 2.880 1.000      7.579  23.000
  244 2.930 2.545  3.315 1.000 1.00000 2.930 1.000     21.444  23.000
  245 2.850 2.473  3.227 1.000 1.00000 2.850 1.000     25.341  23.000
  246 2.860 2.482  3.238 1.000 1.00000 2.860 1.000     20.868  23.000
  247 2.850 2.473  3.227 1.000 1.00000 2.850 1.000     11.397  23.000
  248 2.860 2.482  3.238 1.000 1.00000 2.860 1.000     34.607  23.000
  249 2.900 2.518  3.282 1.000 1.00000 2.900 1.000     20.784  23.000
  250 2.880 2.500  3.260 1.000 1.00000 2.880 1.000     23.444  23.000
  251 2.890 2.509  3.271 1.000 1.00000 2.890 1.000     16.481  23.000
  252 2.870 2.491  3.249 1.000 1.00000 2.870 1.000     27.001  23.000
  253 2.910 2.527  3.293 1.000 1.00000 2.910 1.000     28.720  23.000
  254 2.890 2.509  3.271 1.000 1.00000 2.890 1.000     13.981  23.000
  255 2.850 2.473  3.227 1.000 1.00000 2.850 1.000     19.307  23.000
  256 2.890 2.509  3.271 1.000 1.00000 2.890 1.000     26.141  23.000
  257 2.860 2.482  3.238 1.000 1.00000 2.860 1.000     12.312  23.000
  258 2.860 2.482  3.238 1.000 1.00000 2.860 1.000     31.597  23.000
  259 2.900 2.518  3.282 1.000 1.00000 2.900 1.000     18.066  23.000
  260 2.850 2.473  3.227 1.000 1.00000 2.850 1.000      6.224  23.000
  261 2.860 2.482  3.238 1.000 1.00000 2.860 1.000      6.107  23.000
  262 2.940 2.554  3.326 1.000 1.00000 2.940 1.000     17.374  23.000
  263 2.900 2.518  3.282 1.000 1.00000 2.900 1.000     15.903  23.000
  264 2.900 2.518  3.282 1.000 1.00000 2.900 1.000     14.999  23.000
  265 2.910 2.527  3.293 1.000 1.00000 2.910 1.000     24.192  23.000
  266 2.900 2.518  3.282 1.000 1.00000 2.900 1.000     19.907  23.000
  267 2.950 2.563  3.337 1.000 1.00000 2.950 1.000     47.535  23.000
  268 2.930 2.545  3.315 1.000 1.00000 2.930 1.000     26.347  23.000
  269 2.910 2.527  3.293 1.000 1.00000 2.910 1.000     47.656  23.000
  270 2.860 2.482  3.238 1.000 1.00000 2.860 1.000     26.339  23.000
  271 2.940 2.554  3.326 1.000 1.00000 2.940 1.000     40.352  23.000
  272 2.950 2.563  3.337 1.000 1.00000 2.950 1.000     38.156  23.000
  273 2.860 2.482  3.238 1.000 1.00000 2.860 1.000     12.821  23.000
  274 2.920 2.536  3.304 1.000 1.00000 2.920 1.000     18.654  23.000
  275 2.930 2.545  3.315 1.000 1.00000 2.930 1.000     19.155  23.000
  276 2.910 2.527  3.293 1.000 1.00000 2.910 1.000     20.515  23.000
  277 2.920 2.536  3.304 1.000 1.00000 2.920 1.000     29.574  23.000
  278 2.900 2.518  3.282 1.000 1.00000 2.900 1.000     23.781  23.000
  279 2.910 2.527  3.293 1.000 1.00000 2.910 1.000     16.258  23.000
  280 2.890 2.509  3.271 1.000 1.00000 2.890 1.000      9.639  23.000
  281 2.860 2.482  3.238 1.000 1.00000 2.860 1.000     20.289  23.000
  282 2.850 2.473  3.227 1.000 1.00000 2.850 1.000     33.499  23.000
  283 2.860 2.482  3.238 1.000 1.00000 2.860 1.000     22.807  23.000
  284 2.900 2.518  3.282 1.000 1.00000 2.900 1.000     41.791  23.000
  285 2.890 2.509  3.271 1.000 1.00000 2.890 1.000     13.957  23.000
  286 2.890 2.509  3.271 1.000 1.00000 2.890 1.000     50.641  23.000
  287 2.950 2.563  3.337 1.000 1.00000 2.950 1.000     24.840  23.000
  288 2.910 2.527  3.293 1.000 1.00000 2.910 1.000     21.925  23.000
  289 2.860 2.482  3.238 1.000 1.00000 2.860 1.000     14.509  23.000
  290 2.860 2.482  3.238 1.000 1.00000 2.860 1.000     10.460  23.000
  291 2.960 2.572  3.348 1.000 1.00000 2.960 1.000     63.423  23.000
  292 2.880 2.500  3.260 1.000 1.00000 2.880 1.000     35.705  23.000
  293 2.860 2.482  3.238 1.000 1.00000 2.860 1.000      6.146  23.000
  294 2.920 2.536  3.304 1.000 1.00000 2.920 1.000     26.795  23.000
  295 2.860 2.482  3.238 1.000 1.00000 2.860 1.000     12.907  23.000
  296 2.900 2.518  3.282 1.000 1.00000 2.900 1.000     16.601  23.000
  297 2.900 2.518  3.282 1.000 1.00000 2.900 1.000     16.979  23.000
  298 2.920 2.536  3.304 1.000 1.00000 2.920 1.000     16.720  23.000
  299 2.890 2.509  3.271 1.000 1.00000 2.890 1.000     13.637  23.000
  300 2.950 2.563  3.337 1.000 1.00000 2.950 1.000     49.682  23.000
