## File LOS/SB2_B2004a_2.7z_Mags_1900.bpz  Sat Aug 13 01:39:38 2016
##
##Parameters used to run BPZ:
##
##AB_DIR=/home/lidenscheng/bpz-1.99.3//AB/
##ADD_CONTINUOUS_PROB=None
##ADD_SPEC_PROB=None
##CHECK=LOS/SB2_B2004a_2.7z_Mags_1900.flux_comparison
##COLOR=no
##COLUMNS=losNoErrors.columns
##CONVOLVE_P=yes
##DELTA_M_0=0.0
##DZ=0.01
##EXCLUDE=none
##FC=None
##FILTER_DIR=/home/lidenscheng/MK_DirectSim/filters/
##GET_Z=yes
##INPUT=LOS/SB2_B2004a_2.7z_Mags_1900.txt
##INTERACTIVE=yes
##INTERP=0
##MADAU=no
##MAG=yes
##MEAN_IGM=yes
##MERGE_PEAKS=no
##MIN_MAGERR=0.001
##MIN_RMS=0.05
##NEW_AB=no
##NMAX=None
##NTYPES=None
##N_PEAKS=1
##ODDS=0.95
##ONLY_TYPE=no
##OUTPUT=LOS/SB2_B2004a_2.7z_Mags_1900.bpz
##PHOTO_ERRORS=no
##PLOTS=no
##PRIOR=none
##PROBS=no
##PROBS2=no
##PROBS_LITE=LOS/SB2_B2004a_2.7z_Mags_1900.probs
##P_MIN=0.01
##SED_DIR=/home/lidenscheng/MK_DirectSim/SEDs/
##SPECTRA=SB2.list
##VERBOSE=yes
##ZC=None
##ZMAX=10.0
##ZMIN=0.01
##ZP_OFFSETS=0.0
##Z_THR=0
##
##Column information
##
# 1 ID
# 2 Z_B
# 3 Z_B_MIN
# 4 Z_B_MAX
# 5 T_B
# 6 ODDS    
# 7 Z_ML
# 8 T_ML
# 9 CHI-SQUARED
# 10 M_0
##
    1 2.840 2.464  3.216 1.000 1.00000 2.840 1.000     42.099  23.000
    2 2.740 2.373  3.107 1.000 1.00000 2.740 1.000      2.102  23.000
    3 2.750 2.383  3.117 1.000 1.00000 2.750 1.000      4.998  23.000
    4 2.790 2.419  3.161 1.000 1.00000 2.790 1.000     20.398  23.000
    5 2.780 2.410  3.150 1.000 1.00000 2.780 1.000     32.345  23.000
    6 2.760 2.392  3.128 1.000 1.00000 2.760 1.000     21.360  23.000
    7 2.840 2.464  3.216 1.000 1.00000 2.840 1.000     68.806  23.000
    8 2.770 2.401  3.139 1.000 1.00000 2.770 1.000     10.251  23.000
    9 2.760 2.392  3.128 1.000 1.00000 2.760 1.000     14.340  23.000
   10 2.750 2.383  3.117 1.000 1.00000 2.750 1.000      9.042  23.000
   11 2.850 2.473  3.227 1.000 1.00000 2.850 1.000     71.619  23.000
   12 2.730 2.364  3.096 1.000 1.00000 2.730 1.000      1.230  23.000
   13 2.760 2.392  3.128 1.000 1.00000 2.760 1.000     18.811  23.000
   14 2.740 2.373  3.107 1.000 1.00000 2.740 1.000      1.374  23.000
   15 2.820 2.446  3.194 1.000 1.00000 2.820 1.000     31.104  23.000
   16 2.800 2.428  3.172 1.000 1.00000 2.800 1.000     27.104  23.000
   17 2.780 2.410  3.150 1.000 1.00000 2.780 1.000     29.765  23.000
   18 2.760 2.392  3.128 1.000 1.00000 2.760 1.000     22.896  23.000
   19 2.840 2.464  3.216 1.000 1.00000 2.840 1.000     41.818  23.000
   20 2.750 2.383  3.117 1.000 1.00000 2.750 1.000      8.805  23.000
   21 2.750 2.383  3.117 1.000 1.00000 2.750 1.000      7.322  23.000
   22 2.740 2.373  3.107 1.000 1.00000 2.740 1.000      1.783  23.000
   23 2.790 2.419  3.161 1.000 1.00000 2.790 1.000     26.054  23.000
   24 2.710 2.346  3.074 1.000 1.00000 2.710 1.000      1.129  23.000
   25 2.750 2.383  3.117 1.000 1.00000 2.750 1.000      2.755  23.000
   26 2.790 2.419  3.161 1.000 1.00000 2.790 1.000     38.308  23.000
   27 2.760 2.392  3.128 1.000 1.00000 2.760 1.000      5.364  23.000
   28 2.760 2.392  3.128 1.000 1.00000 2.760 1.000     22.993  23.000
   29 2.770 2.401  3.139 1.000 1.00000 2.770 1.000      6.704  23.000
   30 2.770 2.401  3.139 1.000 1.00000 2.770 1.000     15.312  23.000
   31 2.750 2.383  3.117 1.000 1.00000 2.750 1.000     13.271  23.000
   32 2.840 2.464  3.216 1.000 1.00000 2.840 1.000     23.443  23.000
   33 2.790 2.419  3.161 1.000 1.00000 2.790 1.000     20.919  23.000
   34 2.730 2.364  3.096 1.000 1.00000 2.730 1.000      1.770  23.000
   35 2.770 2.401  3.139 1.000 1.00000 2.770 1.000     30.767  23.000
   36 2.780 2.410  3.150 1.000 1.00000 2.780 1.000     22.810  23.000
   37 2.750 2.383  3.117 1.000 1.00000 2.750 1.000      9.833  23.000
   38 2.850 2.473  3.227 1.000 1.00000 2.850 1.000     61.852  23.000
   39 2.760 2.392  3.128 1.000 1.00000 2.760 1.000     10.451  23.000
   40 2.790 2.419  3.161 1.000 1.00000 2.790 1.000     12.952  23.000
   41 2.770 2.401  3.139 1.000 1.00000 2.770 1.000     11.534  23.000
   42 2.780 2.410  3.150 1.000 1.00000 2.780 1.000     25.078  23.000
   43 2.760 2.392  3.128 1.000 1.00000 2.760 1.000     27.026  23.000
   44 2.750 2.383  3.117 1.000 1.00000 2.750 1.000      4.458  23.000
   45 2.760 2.392  3.128 1.000 1.00000 2.760 1.000     14.962  23.000
   46 2.780 2.410  3.150 1.000 1.00000 2.780 1.000     28.235  23.000
   47 2.740 2.373  3.107 1.000 1.00000 2.740 1.000      4.904  23.000
   48 2.810 2.437  3.183 1.000 1.00000 2.810 1.000     20.203  23.000
   49 2.760 2.392  3.128 1.000 1.00000 2.760 1.000     24.624  23.000
   50 2.850 2.473  3.227 1.000 1.00000 2.850 1.000     49.191  23.000
   51 2.820 2.446  3.194 1.000 1.00000 2.820 1.000     43.671  23.000
   52 2.730 2.364  3.096 1.000 1.00000 2.730 1.000      8.143  23.000
   53 2.850 2.473  3.227 1.000 1.00000 2.850 1.000     44.266  23.000
   54 2.760 2.392  3.128 1.000 1.00000 2.760 1.000     35.141  23.000
   55 2.760 2.392  3.128 1.000 1.00000 2.760 1.000     16.591  23.000
   56 2.820 2.446  3.194 1.000 1.00000 2.820 1.000     52.278  23.000
   57 2.750 2.383  3.117 1.000 1.00000 2.750 1.000      3.646  23.000
   58 2.760 2.392  3.128 1.000 1.00000 2.760 1.000     19.436  23.000
   59 2.760 2.392  3.128 1.000 1.00000 2.760 1.000     27.812  23.000
   60 2.770 2.401  3.139 1.000 1.00000 2.770 1.000     36.398  23.000
   61 2.750 2.383  3.117 1.000 1.00000 2.750 1.000      5.089  23.000
   62 2.800 2.428  3.172 1.000 1.00000 2.800 1.000     26.329  23.000
   63 2.760 2.392  3.128 1.000 1.00000 2.760 1.000     10.851  23.000
   64 2.800 2.428  3.172 1.000 1.00000 2.800 1.000     48.351  23.000
   65 2.760 2.392  3.128 1.000 1.00000 2.760 1.000      5.410  23.000
   66 2.840 2.464  3.216 1.000 1.00000 2.840 1.000     32.412  23.000
   67 2.770 2.401  3.139 1.000 1.00000 2.770 1.000     25.766  23.000
   68 2.760 2.392  3.128 1.000 1.00000 2.760 1.000      8.967  23.000
   69 2.770 2.401  3.139 1.000 1.00000 2.770 1.000     14.569  23.000
   70 2.810 2.437  3.183 1.000 1.00000 2.810 1.000     12.515  23.000
   71 2.750 2.383  3.117 1.000 1.00000 2.750 1.000      6.598  23.000
   72 2.750 2.383  3.117 1.000 1.00000 2.750 1.000      8.963  23.000
   73 2.830 2.455  3.205 1.000 1.00000 2.830 1.000     28.220  23.000
   74 2.760 2.392  3.128 1.000 1.00000 2.760 1.000     26.147  23.000
   75 2.780 2.410  3.150 1.000 1.00000 2.780 1.000     18.723  23.000
   76 2.760 2.392  3.128 1.000 1.00000 2.760 1.000     15.537  23.000
   77 2.810 2.437  3.183 1.000 1.00000 2.810 1.000     28.360  23.000
   78 2.780 2.410  3.150 1.000 1.00000 2.780 1.000     10.962  23.000
   79 2.790 2.419  3.161 1.000 1.00000 2.790 1.000      7.924  23.000
   80 2.760 2.392  3.128 1.000 1.00000 2.760 1.000     14.453  23.000
   81 2.730 2.364  3.096 1.000 1.00000 2.730 1.000      1.284  23.000
   82 2.740 2.373  3.107 1.000 1.00000 2.740 1.000      6.846  23.000
   83 2.790 2.419  3.161 1.000 1.00000 2.790 1.000     10.254  23.000
   84 2.760 2.392  3.128 1.000 1.00000 2.760 1.000     25.432  23.000
   85 2.780 2.410  3.150 1.000 1.00000 2.780 1.000     18.581  23.000
   86 2.760 2.392  3.128 1.000 1.00000 2.760 1.000     12.166  23.000
   87 2.770 2.401  3.139 1.000 1.00000 2.770 1.000     21.058  23.000
   88 2.760 2.392  3.128 1.000 1.00000 2.760 1.000     25.262  23.000
   89 2.760 2.392  3.128 1.000 1.00000 2.760 1.000     26.723  23.000
   90 2.730 2.364  3.096 1.000 1.00000 2.730 1.000      0.793  23.000
   91 2.780 2.410  3.150 1.000 1.00000 2.780 1.000     29.326  23.000
   92 2.760 2.392  3.128 1.000 1.00000 2.760 1.000     12.948  23.000
   93 2.780 2.410  3.150 1.000 1.00000 2.780 1.000     16.501  23.000
   94 2.760 2.392  3.128 1.000 1.00000 2.760 1.000     11.279  23.000
   95 2.750 2.383  3.117 1.000 1.00000 2.750 1.000     20.833  23.000
   96 2.750 2.383  3.117 1.000 1.00000 2.750 1.000     15.296  23.000
   97 2.760 2.392  3.128 1.000 1.00000 2.760 1.000      5.198  23.000
   98 2.840 2.464  3.216 1.000 1.00000 2.840 1.000     47.541  23.000
   99 2.770 2.401  3.139 1.000 1.00000 2.770 1.000     15.227  23.000
  100 2.740 2.373  3.107 1.000 1.00000 2.740 1.000      6.997  23.000
  101 2.740 2.373  3.107 1.000 1.00000 2.740 1.000      2.729  23.000
  102 2.770 2.401  3.139 1.000 1.00000 2.770 1.000     26.261  23.000
  103 2.770 2.401  3.139 1.000 1.00000 2.770 1.000     31.414  23.000
  104 2.750 2.383  3.117 1.000 1.00000 2.750 1.000      6.009  23.000
  105 2.750 2.383  3.117 1.000 1.00000 2.750 1.000      3.636  23.000
  106 2.790 2.419  3.161 1.000 1.00000 2.790 1.000     12.208  23.000
  107 2.750 2.383  3.117 1.000 1.00000 2.750 1.000     14.208  23.000
  108 2.770 2.401  3.139 1.000 1.00000 2.770 1.000     17.503  23.000
  109 2.760 2.392  3.128 1.000 1.00000 2.760 1.000     11.294  23.000
  110 2.800 2.428  3.172 1.000 1.00000 2.800 1.000     33.616  23.000
  111 2.760 2.392  3.128 1.000 1.00000 2.760 1.000      6.307  23.000
  112 2.750 2.383  3.117 1.000 1.00000 2.750 1.000     12.632  23.000
  113 2.800 2.428  3.172 1.000 1.00000 2.800 1.000     25.846  23.000
  114 2.750 2.383  3.117 1.000 1.00000 2.750 1.000     12.228  23.000
  115 2.750 2.383  3.117 1.000 1.00000 2.750 1.000     14.960  23.000
  116 2.800 2.428  3.172 1.000 1.00000 2.800 1.000     30.380  23.000
  117 2.760 2.392  3.128 1.000 1.00000 2.760 1.000     11.071  23.000
  118 2.750 2.383  3.117 1.000 1.00000 2.750 1.000     14.141  23.000
  119 2.830 2.455  3.205 1.000 1.00000 2.830 1.000     56.030  23.000
  120 2.850 2.473  3.227 1.000 1.00000 2.850 1.000    108.236  23.000
  121 2.750 2.383  3.117 1.000 1.00000 2.750 1.000      4.374  23.000
  122 2.760 2.392  3.128 1.000 1.00000 2.760 1.000      5.436  23.000
  123 2.800 2.428  3.172 1.000 1.00000 2.800 1.000     33.135  23.000
  124 2.760 2.392  3.128 1.000 1.00000 2.760 1.000     11.613  23.000
  125 2.760 2.392  3.128 1.000 1.00000 2.760 1.000     22.863  23.000
  126 2.760 2.392  3.128 1.000 1.00000 2.760 1.000     14.466  23.000
  127 2.760 2.392  3.128 1.000 1.00000 2.760 1.000     17.063  23.000
  128 2.800 2.428  3.172 1.000 1.00000 2.800 1.000     20.651  23.000
  129 2.850 2.473  3.227 1.000 1.00000 2.850 1.000     65.617  23.000
  130 2.750 2.383  3.117 1.000 1.00000 2.750 1.000     10.092  23.000
  131 2.760 2.392  3.128 1.000 1.00000 2.760 1.000     28.078  23.000
  132 2.790 2.419  3.161 1.000 1.00000 2.790 1.000     30.749  23.000
  133 2.760 2.392  3.128 1.000 1.00000 2.760 1.000      4.104  23.000
  134 2.760 2.392  3.128 1.000 1.00000 2.760 1.000     21.663  23.000
  135 2.760 2.392  3.128 1.000 1.00000 2.760 1.000     23.808  23.000
  136 2.750 2.383  3.117 1.000 1.00000 2.750 1.000      4.362  23.000
  137 2.800 2.428  3.172 1.000 1.00000 2.800 1.000     17.558  23.000
  138 2.810 2.437  3.183 1.000 1.00000 2.810 1.000     50.658  23.000
  139 2.760 2.392  3.128 1.000 1.00000 2.760 1.000     24.881  23.000
  140 2.810 2.437  3.183 1.000 1.00000 2.810 1.000     26.617  23.000
  141 2.770 2.401  3.139 1.000 1.00000 2.770 1.000     54.049  23.000
  142 2.750 2.383  3.117 1.000 1.00000 2.750 1.000      3.148  23.000
  143 2.800 2.428  3.172 1.000 1.00000 2.800 1.000     39.740  23.000
  144 2.760 2.392  3.128 1.000 1.00000 2.760 1.000     11.112  23.000
  145 2.790 2.419  3.161 1.000 1.00000 2.790 1.000     58.697  23.000
  146 2.750 2.383  3.117 1.000 1.00000 2.750 1.000     15.766  23.000
  147 2.830 2.455  3.205 1.000 1.00000 2.830 1.000     35.747  23.000
  148 2.730 2.364  3.096 1.000 1.00000 2.730 1.000      5.479  23.000
  149 2.760 2.392  3.128 1.000 1.00000 2.760 1.000     32.065  23.000
  150 2.860 2.482  3.238 1.000 1.00000 2.860 1.000     72.752  23.000
  151 2.760 2.392  3.128 1.000 1.00000 2.760 1.000      9.829  23.000
  152 2.760 2.392  3.128 1.000 1.00000 2.760 1.000     20.010  23.000
  153 2.750 2.383  3.117 1.000 1.00000 2.750 1.000      6.981  23.000
  154 2.760 2.392  3.128 1.000 1.00000 2.760 1.000     16.650  23.000
  155 2.830 2.455  3.205 1.000 1.00000 2.830 1.000     50.634  23.000
  156 2.830 2.455  3.205 1.000 1.00000 2.830 1.000     59.259  23.000
  157 2.760 2.392  3.128 1.000 1.00000 2.760 1.000     11.960  23.000
  158 2.750 2.383  3.117 1.000 1.00000 2.750 1.000      5.859  23.000
  159 2.750 2.383  3.117 1.000 1.00000 2.750 1.000      5.036  23.000
  160 2.780 2.410  3.150 1.000 1.00000 2.780 1.000     17.358  23.000
  161 2.830 2.455  3.205 1.000 1.00000 2.830 1.000     59.571  23.000
  162 2.760 2.392  3.128 1.000 1.00000 2.760 1.000     31.915  23.000
  163 2.760 2.392  3.128 1.000 1.00000 2.760 1.000     10.389  23.000
  164 2.810 2.437  3.183 1.000 1.00000 2.810 1.000     39.194  23.000
  165 2.800 2.428  3.172 1.000 1.00000 2.800 1.000     24.871  23.000
  166 2.770 2.401  3.139 1.000 1.00000 2.770 1.000      9.325  23.000
  167 2.760 2.392  3.128 1.000 1.00000 2.760 1.000     14.434  23.000
  168 2.740 2.373  3.107 1.000 1.00000 2.740 1.000      4.666  23.000
  169 2.790 2.419  3.161 1.000 1.00000 2.790 1.000     24.195  23.000
  170 2.760 2.392  3.128 1.000 1.00000 2.760 1.000     21.994  23.000
  171 2.780 2.410  3.150 1.000 1.00000 2.780 1.000     28.508  23.000
  172 2.760 2.392  3.128 1.000 1.00000 2.760 1.000     16.816  23.000
  173 2.830 2.455  3.205 1.000 1.00000 2.830 1.000     22.657  23.000
  174 2.750 2.383  3.117 1.000 1.00000 2.750 1.000     10.554  23.000
  175 2.750 2.383  3.117 1.000 1.00000 2.750 1.000     12.184  23.000
  176 2.760 2.392  3.128 1.000 1.00000 2.760 1.000     12.203  23.000
  177 2.790 2.419  3.161 1.000 1.00000 2.790 1.000     13.763  23.000
  178 2.820 2.446  3.194 1.000 1.00000 2.820 1.000     26.847  23.000
  179 2.730 2.364  3.096 1.000 1.00000 2.730 1.000      2.878  23.000
  180 2.750 2.383  3.117 1.000 1.00000 2.750 1.000      7.032  23.000
  181 2.760 2.392  3.128 1.000 1.00000 2.760 1.000     14.625  23.000
  182 2.750 2.383  3.117 1.000 1.00000 2.750 1.000      7.277  23.000
  183 2.850 2.473  3.227 1.000 1.00000 2.850 1.000     72.483  23.000
  184 2.760 2.392  3.128 1.000 1.00000 2.760 1.000     19.723  23.000
  185 2.760 2.392  3.128 1.000 1.00000 2.760 1.000     20.551  23.000
  186 2.840 2.464  3.216 1.000 1.00000 2.840 1.000     59.346  23.000
  187 2.780 2.410  3.150 1.000 1.00000 2.780 1.000     14.139  23.000
  188 2.780 2.410  3.150 1.000 1.00000 2.780 1.000     18.417  23.000
  189 2.830 2.455  3.205 1.000 1.00000 2.830 1.000     13.272  23.000
  190 2.730 2.364  3.096 1.000 1.00000 2.730 1.000      0.999  23.000
  191 2.760 2.392  3.128 1.000 1.00000 2.760 1.000     24.998  23.000
  192 2.740 2.373  3.107 1.000 1.00000 2.740 1.000      1.534  23.000
  193 2.760 2.392  3.128 1.000 1.00000 2.760 1.000     20.634  23.000
  194 2.750 2.383  3.117 1.000 1.00000 2.750 1.000      6.674  23.000
  195 2.760 2.392  3.128 1.000 1.00000 2.760 1.000      9.489  23.000
  196 2.750 2.383  3.117 1.000 1.00000 2.750 1.000      4.146  23.000
  197 2.740 2.373  3.107 1.000 1.00000 2.740 1.000      2.258  23.000
  198 2.770 2.401  3.139 1.000 1.00000 2.770 1.000     31.067  23.000
  199 2.780 2.410  3.150 1.000 1.00000 2.780 1.000     22.919  23.000
  200 2.770 2.401  3.139 1.000 1.00000 2.770 1.000     20.815  23.000
  201 2.770 2.401  3.139 1.000 1.00000 2.770 1.000     31.062  23.000
  202 2.850 2.473  3.227 1.000 1.00000 2.850 1.000     77.991  23.000
  203 2.750 2.383  3.117 1.000 1.00000 2.750 1.000     17.275  23.000
  204 2.750 2.383  3.117 1.000 1.00000 2.750 1.000      9.187  23.000
  205 2.830 2.455  3.205 1.000 1.00000 2.830 1.000     40.949  23.000
  206 2.780 2.410  3.150 1.000 1.00000 2.780 1.000     22.281  23.000
  207 2.830 2.455  3.205 1.000 1.00000 2.830 1.000     56.908  23.000
  208 2.790 2.419  3.161 1.000 1.00000 2.790 1.000     32.179  23.000
  209 2.750 2.383  3.117 1.000 1.00000 2.750 1.000     12.023  23.000
  210 2.790 2.419  3.161 1.000 1.00000 2.790 1.000     32.998  23.000
  211 2.830 2.455  3.205 1.000 1.00000 2.830 1.000     47.299  23.000
  212 2.750 2.383  3.117 1.000 1.00000 2.750 1.000      2.328  23.000
  213 2.760 2.392  3.128 1.000 1.00000 2.760 1.000     10.238  23.000
  214 2.830 2.455  3.205 1.000 1.00000 2.830 1.000     52.973  23.000
  215 2.830 2.455  3.205 1.000 1.00000 2.830 1.000     42.965  23.000
  216 2.720 2.355  3.085 1.000 1.00000 2.720 1.000      1.975  23.000
  217 2.750 2.383  3.117 1.000 1.00000 2.750 1.000     11.723  23.000
  218 2.820 2.446  3.194 1.000 1.00000 2.820 1.000     15.030  23.000
  219 2.730 2.364  3.096 1.000 1.00000 2.730 1.000      2.623  23.000
  220 2.770 2.401  3.139 1.000 1.00000 2.770 1.000     11.652  23.000
  221 2.760 2.392  3.128 1.000 1.00000 2.760 1.000     12.836  23.000
  222 2.740 2.373  3.107 1.000 1.00000 2.740 1.000      4.026  23.000
  223 2.850 2.473  3.227 1.000 1.00000 2.850 1.000     67.057  23.000
  224 2.830 2.455  3.205 1.000 1.00000 2.830 1.000     49.563  23.000
  225 2.740 2.373  3.107 1.000 1.00000 2.740 1.000      1.350  23.000
  226 2.770 2.401  3.139 1.000 1.00000 2.770 1.000     37.188  23.000
  227 2.740 2.373  3.107 1.000 1.00000 2.740 1.000      3.767  23.000
  228 2.750 2.383  3.117 1.000 1.00000 2.750 1.000     10.931  23.000
  229 2.760 2.392  3.128 1.000 1.00000 2.760 1.000     10.463  23.000
  230 2.770 2.401  3.139 1.000 1.00000 2.770 1.000      5.604  23.000
  231 2.760 2.392  3.128 1.000 1.00000 2.760 1.000      9.817  23.000
  232 2.760 2.392  3.128 1.000 1.00000 2.760 1.000     11.084  23.000
  233 2.790 2.419  3.161 1.000 1.00000 2.790 1.000     11.289  23.000
  234 2.770 2.401  3.139 1.000 1.00000 2.770 1.000     16.276  23.000
  235 2.760 2.392  3.128 1.000 1.00000 2.760 1.000     24.085  23.000
  236 2.770 2.401  3.139 1.000 1.00000 2.770 1.000     15.942  23.000
  237 2.760 2.392  3.128 1.000 1.00000 2.760 1.000     10.738  23.000
  238 2.770 2.401  3.139 1.000 1.00000 2.770 1.000      4.658  23.000
  239 2.740 2.373  3.107 1.000 1.00000 2.740 1.000      3.886  23.000
  240 2.750 2.383  3.117 1.000 1.00000 2.750 1.000      6.771  23.000
  241 2.770 2.401  3.139 1.000 1.00000 2.770 1.000      8.241  23.000
  242 2.760 2.392  3.128 1.000 1.00000 2.760 1.000     32.850  23.000
  243 2.750 2.383  3.117 1.000 1.00000 2.750 1.000      4.326  23.000
  244 2.820 2.446  3.194 1.000 1.00000 2.820 1.000     28.578  23.000
  245 2.750 2.383  3.117 1.000 1.00000 2.750 1.000     24.855  23.000
  246 2.760 2.392  3.128 1.000 1.00000 2.760 1.000     10.995  23.000
  247 2.820 2.446  3.194 1.000 1.00000 2.820 1.000     35.321  23.000
  248 2.740 2.373  3.107 1.000 1.00000 2.740 1.000      2.762  23.000
  249 2.790 2.419  3.161 1.000 1.00000 2.790 1.000     38.601  23.000
  250 2.760 2.392  3.128 1.000 1.00000 2.760 1.000     15.628  23.000
  251 2.760 2.392  3.128 1.000 1.00000 2.760 1.000     11.653  23.000
  252 2.790 2.419  3.161 1.000 1.00000 2.790 1.000     42.901  23.000
  253 2.750 2.383  3.117 1.000 1.00000 2.750 1.000     13.866  23.000
  254 2.760 2.392  3.128 1.000 1.00000 2.760 1.000     31.262  23.000
  255 2.750 2.383  3.117 1.000 1.00000 2.750 1.000      9.127  23.000
  256 2.830 2.455  3.205 1.000 1.00000 2.830 1.000     44.367  23.000
  257 2.770 2.401  3.139 1.000 1.00000 2.770 1.000     22.571  23.000
  258 2.760 2.392  3.128 1.000 1.00000 2.760 1.000      3.800  23.000
  259 2.810 2.437  3.183 1.000 1.00000 2.810 1.000     55.642  23.000
  260 2.780 2.410  3.150 1.000 1.00000 2.780 1.000     24.056  23.000
  261 2.760 2.392  3.128 1.000 1.00000 2.760 1.000     10.563  23.000
  262 2.770 2.401  3.139 1.000 1.00000 2.770 1.000      8.291  23.000
  263 2.770 2.401  3.139 1.000 1.00000 2.770 1.000     20.851  23.000
  264 2.780 2.410  3.150 1.000 1.00000 2.780 1.000     20.774  23.000
  265 2.800 2.428  3.172 1.000 1.00000 2.800 1.000     32.200  23.000
  266 2.760 2.392  3.128 1.000 1.00000 2.760 1.000      7.102  23.000
  267 2.720 2.355  3.085 1.000 1.00000 2.720 1.000      1.230  23.000
  268 2.750 2.383  3.117 1.000 1.00000 2.750 1.000      4.610  23.000
  269 2.790 2.419  3.161 1.000 1.00000 2.790 1.000     32.723  23.000
  270 2.740 2.373  3.107 1.000 1.00000 2.740 1.000      2.769  23.000
  271 2.800 2.428  3.172 1.000 1.00000 2.800 1.000     48.270  23.000
  272 2.830 2.455  3.205 1.000 1.00000 2.830 1.000     55.396  23.000
  273 2.790 2.419  3.161 1.000 1.00000 2.790 1.000     45.882  23.000
  274 2.760 2.392  3.128 1.000 1.00000 2.760 1.000      5.956  23.000
  275 2.780 2.410  3.150 1.000 1.00000 2.780 1.000     13.625  23.000
  276 2.770 2.401  3.139 1.000 1.00000 2.770 1.000     25.075  23.000
  277 2.810 2.437  3.183 1.000 1.00000 2.810 1.000     45.135  23.000
  278 2.750 2.383  3.117 1.000 1.00000 2.750 1.000      2.559  23.000
  279 2.760 2.392  3.128 1.000 1.00000 2.760 1.000      9.159  23.000
  280 2.770 2.401  3.139 1.000 1.00000 2.770 1.000     29.254  23.000
  281 2.760 2.392  3.128 1.000 1.00000 2.760 1.000     25.841  23.000
  282 2.750 2.383  3.117 1.000 1.00000 2.750 1.000     15.804  23.000
  283 2.790 2.419  3.161 1.000 1.00000 2.790 1.000     20.931  23.000
  284 2.750 2.383  3.117 1.000 1.00000 2.750 1.000      9.542  23.000
  285 2.760 2.392  3.128 1.000 1.00000 2.760 1.000      6.497  23.000
  286 2.770 2.401  3.139 1.000 1.00000 2.770 1.000     22.186  23.000
  287 2.750 2.383  3.117 1.000 1.00000 2.750 1.000      6.163  23.000
  288 2.770 2.401  3.139 1.000 1.00000 2.770 1.000     14.570  23.000
  289 2.760 2.392  3.128 1.000 1.00000 2.760 1.000     10.546  23.000
  290 2.760 2.392  3.128 1.000 1.00000 2.760 1.000      3.924  23.000
  291 2.750 2.383  3.117 1.000 1.00000 2.750 1.000     12.218  23.000
  292 2.780 2.410  3.150 1.000 1.00000 2.780 1.000     36.248  23.000
  293 2.840 2.464  3.216 1.000 1.00000 2.840 1.000     40.525  23.000
  294 2.830 2.455  3.205 1.000 1.00000 2.830 1.000     55.026  23.000
  295 2.790 2.419  3.161 1.000 1.00000 2.790 1.000     32.897  23.000
  296 2.750 2.383  3.117 1.000 1.00000 2.750 1.000      7.935  23.000
  297 2.760 2.392  3.128 1.000 1.00000 2.760 1.000     11.468  23.000
  298 2.780 2.410  3.150 1.000 1.00000 2.780 1.000     20.023  23.000
  299 2.850 2.473  3.227 1.000 1.00000 2.850 1.000     71.776  23.000
  300 2.850 2.473  3.227 1.000 1.00000 2.850 1.000     38.161  23.000
  301 2.760 2.392  3.128 1.000 1.00000 2.760 1.000     14.781  23.000
  302 2.730 2.364  3.096 1.000 1.00000 2.730 1.000      2.695  23.000
  303 2.850 2.473  3.227 1.000 1.00000 2.850 1.000     51.004  23.000
  304 2.750 2.383  3.117 1.000 1.00000 2.750 1.000     16.452  23.000
  305 2.750 2.383  3.117 1.000 1.00000 2.750 1.000      4.698  23.000
  306 2.750 2.383  3.117 1.000 1.00000 2.750 1.000     13.163  23.000
  307 2.840 2.464  3.216 1.000 1.00000 2.840 1.000     39.756  23.000
  308 2.750 2.383  3.117 1.000 1.00000 2.750 1.000      6.319  23.000
  309 2.750 2.383  3.117 1.000 1.00000 2.750 1.000     12.666  23.000
  310 2.750 2.383  3.117 1.000 1.00000 2.750 1.000     26.211  23.000
  311 2.750 2.383  3.117 1.000 1.00000 2.750 1.000      2.274  23.000
  312 2.810 2.437  3.183 1.000 1.00000 2.810 1.000     17.231  23.000
  313 2.760 2.392  3.128 1.000 1.00000 2.760 1.000     15.576  23.000
  314 2.750 2.383  3.117 1.000 1.00000 2.750 1.000      2.597  23.000
  315 2.760 2.392  3.128 1.000 1.00000 2.760 1.000     28.247  23.000
  316 2.760 2.392  3.128 1.000 1.00000 2.760 1.000     10.873  23.000
  317 2.760 2.392  3.128 1.000 1.00000 2.760 1.000     13.063  23.000
  318 2.790 2.419  3.161 1.000 1.00000 2.790 1.000     31.918  23.000
  319 2.750 2.383  3.117 1.000 1.00000 2.750 1.000     18.948  23.000
  320 2.760 2.392  3.128 1.000 1.00000 2.760 1.000      5.823  23.000
  321 2.790 2.419  3.161 1.000 1.00000 2.790 1.000     28.866  23.000
  322 2.780 2.410  3.150 1.000 1.00000 2.780 1.000     29.186  23.000
  323 2.760 2.392  3.128 1.000 1.00000 2.760 1.000     10.036  23.000
  324 2.760 2.392  3.128 1.000 1.00000 2.760 1.000     14.771  23.000
  325 2.770 2.401  3.139 1.000 1.00000 2.770 1.000     10.687  23.000
  326 2.760 2.392  3.128 1.000 1.00000 2.760 1.000     24.444  23.000
  327 2.750 2.383  3.117 1.000 1.00000 2.750 1.000      2.611  23.000
  328 2.750 2.383  3.117 1.000 1.00000 2.750 1.000      7.664  23.000
  329 2.750 2.383  3.117 1.000 1.00000 2.750 1.000     10.787  23.000
  330 2.790 2.419  3.161 1.000 1.00000 2.790 1.000     29.023  23.000
  331 2.750 2.383  3.117 1.000 1.00000 2.750 1.000      5.619  23.000
  332 2.760 2.392  3.128 1.000 1.00000 2.760 1.000     18.165  23.000
  333 2.760 2.392  3.128 1.000 1.00000 2.760 1.000     15.511  23.000
  334 2.760 2.392  3.128 1.000 1.00000 2.760 1.000     27.970  23.000
  335 2.760 2.392  3.128 1.000 1.00000 2.760 1.000     12.830  23.000
  336 2.760 2.392  3.128 1.000 1.00000 2.760 1.000      6.816  23.000
  337 2.750 2.383  3.117 1.000 1.00000 2.750 1.000      2.275  23.000
  338 2.810 2.437  3.183 1.000 1.00000 2.810 1.000     19.881  23.000
  339 2.750 2.383  3.117 1.000 1.00000 2.750 1.000     21.101  23.000
  340 2.760 2.392  3.128 1.000 1.00000 2.760 1.000     22.799  23.000
  341 2.760 2.392  3.128 1.000 1.00000 2.760 1.000      8.354  23.000
  342 2.780 2.410  3.150 1.000 1.00000 2.780 1.000     21.882  23.000
  343 2.760 2.392  3.128 1.000 1.00000 2.760 1.000     28.239  23.000
  344 2.770 2.401  3.139 1.000 1.00000 2.770 1.000      9.139  23.000
  345 2.760 2.392  3.128 1.000 1.00000 2.760 1.000      9.890  23.000
  346 2.750 2.383  3.117 1.000 1.00000 2.750 1.000      5.936  23.000
  347 2.760 2.392  3.128 1.000 1.00000 2.760 1.000     25.480  23.000
  348 2.760 2.392  3.128 1.000 1.00000 2.760 1.000     27.005  23.000
  349 2.760 2.392  3.128 1.000 1.00000 2.760 1.000      9.168  23.000
  350 2.750 2.383  3.117 1.000 1.00000 2.750 1.000     12.497  23.000
  351 2.750 2.383  3.117 1.000 1.00000 2.750 1.000      9.165  23.000
  352 2.840 2.464  3.216 1.000 1.00000 2.840 1.000     50.362  23.000
  353 2.750 2.383  3.117 1.000 1.00000 2.750 1.000      6.945  23.000
  354 2.810 2.437  3.183 1.000 1.00000 2.810 1.000     14.590  23.000
  355 2.770 2.401  3.139 1.000 1.00000 2.770 1.000     14.116  23.000
  356 2.830 2.455  3.205 1.000 1.00000 2.830 1.000     20.405  23.000
  357 2.740 2.373  3.107 1.000 1.00000 2.740 1.000      8.766  23.000
  358 2.760 2.392  3.128 1.000 1.00000 2.760 1.000     25.151  23.000
  359 2.760 2.392  3.128 1.000 1.00000 2.760 1.000     11.265  23.000
  360 2.860 2.482  3.238 1.000 1.00000 2.860 1.000     57.997  23.000
  361 2.760 2.392  3.128 1.000 1.00000 2.760 1.000     17.247  23.000
  362 2.760 2.392  3.128 1.000 1.00000 2.760 1.000      9.312  23.000
  363 2.850 2.473  3.227 1.000 1.00000 2.850 1.000     71.911  23.000
  364 2.780 2.410  3.150 1.000 1.00000 2.780 1.000     31.110  23.000
  365 2.770 2.401  3.139 1.000 1.00000 2.770 1.000     24.260  23.000
  366 2.820 2.446  3.194 1.000 1.00000 2.820 1.000     43.075  23.000
  367 2.760 2.392  3.128 1.000 1.00000 2.760 1.000     11.363  23.000
  368 2.760 2.392  3.128 1.000 1.00000 2.760 1.000     18.491  23.000
  369 2.750 2.383  3.117 1.000 1.00000 2.750 1.000     10.064  23.000
  370 2.790 2.419  3.161 1.000 1.00000 2.790 1.000     18.186  23.000
  371 2.730 2.364  3.096 1.000 1.00000 2.730 1.000      5.639  23.000
  372 2.760 2.392  3.128 1.000 1.00000 2.760 1.000     23.836  23.000
  373 2.780 2.410  3.150 1.000 1.00000 2.780 1.000      8.530  23.000
  374 2.750 2.383  3.117 1.000 1.00000 2.750 1.000     19.627  23.000
  375 2.750 2.383  3.117 1.000 1.00000 2.750 1.000     15.204  23.000
  376 2.800 2.428  3.172 1.000 1.00000 2.800 1.000     25.080  23.000
  377 2.770 2.401  3.139 1.000 1.00000 2.770 1.000     21.509  23.000
  378 2.810 2.437  3.183 1.000 1.00000 2.810 1.000     42.057  23.000
  379 2.760 2.392  3.128 1.000 1.00000 2.760 1.000      6.479  23.000
  380 2.730 2.364  3.096 1.000 1.00000 2.730 1.000      5.604  23.000
  381 2.830 2.455  3.205 1.000 1.00000 2.830 1.000     32.447  23.000
  382 2.750 2.383  3.117 1.000 1.00000 2.750 1.000      5.034  23.000
  383 2.750 2.383  3.117 1.000 1.00000 2.750 1.000     16.571  23.000
  384 2.760 2.392  3.128 1.000 1.00000 2.760 1.000      8.294  23.000
  385 2.750 2.383  3.117 1.000 1.00000 2.750 1.000     21.313  23.000
  386 2.760 2.392  3.128 1.000 1.00000 2.760 1.000     16.318  23.000
  387 2.800 2.428  3.172 1.000 1.00000 2.800 1.000     24.347  23.000
  388 2.800 2.428  3.172 1.000 1.00000 2.800 1.000     38.537  23.000
  389 2.780 2.410  3.150 1.000 1.00000 2.780 1.000     18.186  23.000
  390 2.760 2.392  3.128 1.000 1.00000 2.760 1.000      8.226  23.000
  391 2.750 2.383  3.117 1.000 1.00000 2.750 1.000     10.414  23.000
  392 2.760 2.392  3.128 1.000 1.00000 2.760 1.000     16.987  23.000
  393 2.760 2.392  3.128 1.000 1.00000 2.760 1.000     18.674  23.000
  394 2.750 2.383  3.117 1.000 1.00000 2.750 1.000      9.695  23.000
  395 2.800 2.428  3.172 1.000 1.00000 2.800 1.000     12.251  23.000
  396 2.750 2.383  3.117 1.000 1.00000 2.750 1.000      7.738  23.000
  397 2.820 2.446  3.194 1.000 1.00000 2.820 1.000     54.275  23.000
  398 2.850 2.473  3.227 1.000 1.00000 2.850 1.000     49.391  23.000
  399 2.740 2.373  3.107 1.000 1.00000 2.740 1.000      4.982  23.000
  400 2.780 2.410  3.150 1.000 1.00000 2.780 1.000     17.291  23.000
  401 2.800 2.428  3.172 1.000 1.00000 2.800 1.000     17.161  23.000
  402 2.760 2.392  3.128 1.000 1.00000 2.760 1.000     21.002  23.000
  403 2.850 2.473  3.227 1.000 1.00000 2.850 1.000     41.889  23.000
  404 2.810 2.437  3.183 1.000 1.00000 2.810 1.000     38.963  23.000
  405 2.760 2.392  3.128 1.000 1.00000 2.760 1.000     15.420  23.000
  406 2.760 2.392  3.128 1.000 1.00000 2.760 1.000     13.936  23.000
  407 2.780 2.410  3.150 1.000 1.00000 2.780 1.000     24.183  23.000
  408 2.770 2.401  3.139 1.000 1.00000 2.770 1.000     13.999  23.000
  409 2.780 2.410  3.150 1.000 1.00000 2.780 1.000     42.608  23.000
  410 2.820 2.446  3.194 1.000 1.00000 2.820 1.000     26.458  23.000
  411 2.810 2.437  3.183 1.000 1.00000 2.810 1.000     51.392  23.000
  412 2.760 2.392  3.128 1.000 1.00000 2.760 1.000     19.557  23.000
  413 2.750 2.383  3.117 1.000 1.00000 2.750 1.000      6.607  23.000
  414 2.760 2.392  3.128 1.000 1.00000 2.760 1.000     16.243  23.000
  415 2.760 2.392  3.128 1.000 1.00000 2.760 1.000     18.618  23.000
  416 2.760 2.392  3.128 1.000 1.00000 2.760 1.000     28.187  23.000
  417 2.740 2.373  3.107 1.000 1.00000 2.740 1.000      8.096  23.000
  418 2.850 2.473  3.227 1.000 1.00000 2.850 1.000     46.038  23.000
  419 2.760 2.392  3.128 1.000 1.00000 2.760 1.000     14.800  23.000
  420 2.800 2.428  3.172 1.000 1.00000 2.800 1.000     32.051  23.000
  421 2.760 2.392  3.128 1.000 1.00000 2.760 1.000      6.232  23.000
  422 2.750 2.383  3.117 1.000 1.00000 2.750 1.000     12.650  23.000
  423 2.750 2.383  3.117 1.000 1.00000 2.750 1.000     13.489  23.000
  424 2.720 2.355  3.085 1.000 1.00000 2.720 1.000      0.951  23.000
  425 2.760 2.392  3.128 1.000 1.00000 2.760 1.000     12.139  23.000
  426 2.760 2.392  3.128 1.000 1.00000 2.760 1.000     13.169  23.000
  427 2.820 2.446  3.194 1.000 1.00000 2.820 1.000     49.269  23.000
  428 2.790 2.419  3.161 1.000 1.00000 2.790 1.000     14.411  23.000
  429 2.760 2.392  3.128 1.000 1.00000 2.760 1.000     19.350  23.000
  430 2.840 2.464  3.216 1.000 1.00000 2.840 1.000     30.415  23.000
  431 2.750 2.383  3.117 1.000 1.00000 2.750 1.000      9.937  23.000
  432 2.760 2.392  3.128 1.000 1.00000 2.760 1.000     11.548  23.000
  433 2.760 2.392  3.128 1.000 1.00000 2.760 1.000     13.983  23.000
  434 2.750 2.383  3.117 1.000 1.00000 2.750 1.000      7.023  23.000
  435 2.780 2.410  3.150 1.000 1.00000 2.780 1.000      8.238  23.000
  436 2.790 2.419  3.161 1.000 1.00000 2.790 1.000     22.882  23.000
  437 2.820 2.446  3.194 1.000 1.00000 2.820 1.000     18.151  23.000
  438 2.760 2.392  3.128 1.000 1.00000 2.760 1.000     16.156  23.000
  439 2.760 2.392  3.128 1.000 1.00000 2.760 1.000      6.067  23.000
  440 2.800 2.428  3.172 1.000 1.00000 2.800 1.000     47.106  23.000
  441 2.750 2.383  3.117 1.000 1.00000 2.750 1.000      3.803  23.000
  442 2.760 2.392  3.128 1.000 1.00000 2.760 1.000      9.293  23.000
  443 2.760 2.392  3.128 1.000 1.00000 2.760 1.000     15.393  23.000
  444 2.760 2.392  3.128 1.000 1.00000 2.760 1.000     17.806  23.000
  445 2.760 2.392  3.128 1.000 1.00000 2.760 1.000      9.290  23.000
  446 2.760 2.392  3.128 1.000 1.00000 2.760 1.000      8.621  23.000
  447 2.750 2.383  3.117 1.000 1.00000 2.750 1.000      9.894  23.000
  448 2.770 2.401  3.139 1.000 1.00000 2.770 1.000     18.311  23.000
  449 2.760 2.392  3.128 1.000 1.00000 2.760 1.000     14.292  23.000
  450 2.760 2.392  3.128 1.000 1.00000 2.760 1.000     28.228  23.000
  451 2.780 2.410  3.150 1.000 1.00000 2.780 1.000     20.605  23.000
  452 2.800 2.428  3.172 1.000 1.00000 2.800 1.000     27.459  23.000
  453 2.770 2.401  3.139 1.000 1.00000 2.770 1.000     19.869  23.000
  454 2.760 2.392  3.128 1.000 1.00000 2.760 1.000     29.050  23.000
  455 2.800 2.428  3.172 1.000 1.00000 2.800 1.000     51.426  23.000
  456 2.810 2.437  3.183 1.000 1.00000 2.810 1.000     32.704  23.000
  457 2.760 2.392  3.128 1.000 1.00000 2.760 1.000     12.700  23.000
  458 2.770 2.401  3.139 1.000 1.00000 2.770 1.000     21.533  23.000
  459 2.750 2.383  3.117 1.000 1.00000 2.750 1.000     10.023  23.000
  460 2.830 2.455  3.205 1.000 1.00000 2.830 1.000     46.791  23.000
  461 2.780 2.410  3.150 1.000 1.00000 2.780 1.000     40.328  23.000
  462 2.840 2.464  3.216 1.000 1.00000 2.840 1.000     37.862  23.000
  463 2.820 2.446  3.194 1.000 1.00000 2.820 1.000     23.361  23.000
  464 2.760 2.392  3.128 1.000 1.00000 2.760 1.000     24.362  23.000
  465 2.780 2.410  3.150 1.000 1.00000 2.780 1.000     15.129  23.000
  466 2.730 2.364  3.096 1.000 1.00000 2.730 1.000      1.041  23.000
  467 2.790 2.419  3.161 1.000 1.00000 2.790 1.000     20.904  23.000
  468 2.750 2.383  3.117 1.000 1.00000 2.750 1.000      3.262  23.000
  469 2.790 2.419  3.161 1.000 1.00000 2.790 1.000     13.315  23.000
  470 2.770 2.401  3.139 1.000 1.00000 2.770 1.000     20.351  23.000
  471 2.850 2.473  3.227 1.000 1.00000 2.850 1.000     50.689  23.000
  472 2.760 2.392  3.128 1.000 1.00000 2.760 1.000     24.533  23.000
  473 2.760 2.392  3.128 1.000 1.00000 2.760 1.000     16.016  23.000
  474 2.740 2.373  3.107 1.000 1.00000 2.740 1.000      2.099  23.000
  475 2.740 2.373  3.107 1.000 1.00000 2.740 1.000      3.816  23.000
  476 2.760 2.392  3.128 1.000 1.00000 2.760 1.000      8.630  23.000
  477 2.760 2.392  3.128 1.000 1.00000 2.760 1.000      6.319  23.000
  478 2.750 2.383  3.117 1.000 1.00000 2.750 1.000     25.720  23.000
  479 2.740 2.373  3.107 1.000 1.00000 2.740 1.000      7.104  23.000
  480 2.790 2.419  3.161 1.000 1.00000 2.790 1.000     20.213  23.000
  481 2.820 2.446  3.194 1.000 1.00000 2.820 1.000     37.818  23.000
  482 2.760 2.392  3.128 1.000 1.00000 2.760 1.000      9.294  23.000
  483 2.770 2.401  3.139 1.000 1.00000 2.770 1.000     17.411  23.000
  484 2.760 2.392  3.128 1.000 1.00000 2.760 1.000     10.289  23.000
  485 2.760 2.392  3.128 1.000 1.00000 2.760 1.000     10.361  23.000
  486 2.790 2.419  3.161 1.000 1.00000 2.790 1.000     33.906  23.000
  487 2.820 2.446  3.194 1.000 1.00000 2.820 1.000     44.649  23.000
  488 2.750 2.383  3.117 1.000 1.00000 2.750 1.000     11.665  23.000
  489 2.740 2.373  3.107 1.000 1.00000 2.740 1.000      1.631  23.000
  490 2.760 2.392  3.128 1.000 1.00000 2.760 1.000      9.341  23.000
  491 2.850 2.473  3.227 1.000 1.00000 2.850 1.000     51.238  23.000
  492 2.760 2.392  3.128 1.000 1.00000 2.760 1.000     11.357  23.000
  493 2.820 2.446  3.194 1.000 1.00000 2.820 1.000     28.941  23.000
  494 2.740 2.373  3.107 1.000 1.00000 2.740 1.000      1.664  23.000
  495 2.750 2.383  3.117 1.000 1.00000 2.750 1.000      9.588  23.000
  496 2.800 2.428  3.172 1.000 1.00000 2.800 1.000     25.097  23.000
  497 2.790 2.419  3.161 1.000 1.00000 2.790 1.000     13.422  23.000
  498 2.710 2.346  3.074 1.000 1.00000 2.710 1.000      0.327  23.000
  499 2.750 2.383  3.117 1.000 1.00000 2.750 1.000     15.459  23.000
  500 2.760 2.392  3.128 1.000 1.00000 2.760 1.000      4.948  23.000
  501 2.760 2.392  3.128 1.000 1.00000 2.760 1.000     11.922  23.000
  502 2.740 2.373  3.107 1.000 1.00000 2.740 1.000      2.602  23.000
  503 2.780 2.410  3.150 1.000 1.00000 2.780 1.000      9.349  23.000
  504 2.790 2.419  3.161 1.000 1.00000 2.790 1.000     23.989  23.000
  505 2.760 2.392  3.128 1.000 1.00000 2.760 1.000      9.575  23.000
  506 2.750 2.383  3.117 1.000 1.00000 2.750 1.000     10.291  23.000
  507 2.720 2.355  3.085 1.000 1.00000 2.720 1.000      2.213  23.000
  508 2.770 2.401  3.139 1.000 1.00000 2.770 1.000      7.881  23.000
  509 2.750 2.383  3.117 1.000 1.00000 2.750 1.000      5.289  23.000
  510 2.750 2.383  3.117 1.000 1.00000 2.750 1.000     14.593  23.000
  511 2.850 2.473  3.227 1.000 1.00000 2.850 1.000     22.370  23.000
  512 2.760 2.392  3.128 1.000 1.00000 2.760 1.000      6.538  23.000
  513 2.780 2.410  3.150 1.000 1.00000 2.780 1.000     34.890  23.000
  514 2.750 2.383  3.117 1.000 1.00000 2.750 1.000     10.059  23.000
  515 2.760 2.392  3.128 1.000 1.00000 2.760 1.000     11.040  23.000
  516 2.800 2.428  3.172 1.000 1.00000 2.800 1.000     20.188  23.000
  517 2.750 2.383  3.117 1.000 1.00000 2.750 1.000     15.092  23.000
  518 2.760 2.392  3.128 1.000 1.00000 2.760 1.000     28.382  23.000
  519 2.830 2.455  3.205 1.000 1.00000 2.830 1.000     23.318  23.000
  520 2.710 2.346  3.074 1.000 1.00000 2.710 1.000      3.010  23.000
  521 2.760 2.392  3.128 1.000 1.00000 2.760 1.000      6.730  23.000
  522 2.780 2.410  3.150 1.000 1.00000 2.780 1.000     16.849  23.000
  523 2.760 2.392  3.128 1.000 1.00000 2.760 1.000      9.264  23.000
  524 2.760 2.392  3.128 1.000 1.00000 2.760 1.000     14.351  23.000
  525 2.810 2.437  3.183 1.000 1.00000 2.810 1.000     19.560  23.000
  526 2.750 2.383  3.117 1.000 1.00000 2.750 1.000     10.196  23.000
  527 2.750 2.383  3.117 1.000 1.00000 2.750 1.000     13.082  23.000
  528 2.790 2.419  3.161 1.000 1.00000 2.790 1.000     18.669  23.000
  529 2.740 2.373  3.107 1.000 1.00000 2.740 1.000      3.368  23.000
  530 2.760 2.392  3.128 1.000 1.00000 2.760 1.000     23.575  23.000
  531 2.780 2.410  3.150 1.000 1.00000 2.780 1.000      6.850  23.000
  532 2.790 2.419  3.161 1.000 1.00000 2.790 1.000     15.756  23.000
  533 2.750 2.383  3.117 1.000 1.00000 2.750 1.000      8.834  23.000
  534 2.800 2.428  3.172 1.000 1.00000 2.800 1.000     21.397  23.000
  535 2.810 2.437  3.183 1.000 1.00000 2.810 1.000     26.261  23.000
  536 2.760 2.392  3.128 1.000 1.00000 2.760 1.000     30.332  23.000
  537 2.780 2.410  3.150 1.000 1.00000 2.780 1.000     17.687  23.000
  538 2.770 2.401  3.139 1.000 1.00000 2.770 1.000     23.653  23.000
  539 2.750 2.383  3.117 1.000 1.00000 2.750 1.000      6.026  23.000
  540 2.730 2.364  3.096 1.000 1.00000 2.730 1.000      7.959  23.000
  541 2.780 2.410  3.150 1.000 1.00000 2.780 1.000     28.191  23.000
  542 2.760 2.392  3.128 1.000 1.00000 2.760 1.000     16.845  23.000
  543 2.770 2.401  3.139 1.000 1.00000 2.770 1.000     28.416  23.000
  544 2.760 2.392  3.128 1.000 1.00000 2.760 1.000     13.613  23.000
  545 2.740 2.373  3.107 1.000 1.00000 2.740 1.000      9.427  23.000
  546 2.760 2.392  3.128 1.000 1.00000 2.760 1.000     15.364  23.000
  547 2.760 2.392  3.128 1.000 1.00000 2.760 1.000      5.953  23.000
  548 2.840 2.464  3.216 1.000 1.00000 2.840 1.000     21.752  23.000
  549 2.750 2.383  3.117 1.000 1.00000 2.750 1.000      4.605  23.000
  550 2.790 2.419  3.161 1.000 1.00000 2.790 1.000     28.834  23.000
  551 2.790 2.419  3.161 1.000 1.00000 2.790 1.000     16.019  23.000
  552 2.750 2.383  3.117 1.000 1.00000 2.750 1.000     10.381  23.000
  553 2.780 2.410  3.150 1.000 1.00000 2.780 1.000      5.979  23.000
  554 2.760 2.392  3.128 1.000 1.00000 2.760 1.000      4.275  23.000
  555 2.800 2.428  3.172 1.000 1.00000 2.800 1.000     34.516  23.000
  556 2.750 2.383  3.117 1.000 1.00000 2.750 1.000     13.251  23.000
  557 2.760 2.392  3.128 1.000 1.00000 2.760 1.000     10.151  23.000
  558 2.840 2.464  3.216 1.000 1.00000 2.840 1.000     47.147  23.000
  559 2.760 2.392  3.128 1.000 1.00000 2.760 1.000      7.849  23.000
  560 2.780 2.410  3.150 1.000 1.00000 2.780 1.000     20.403  23.000
  561 2.810 2.437  3.183 1.000 1.00000 2.810 1.000     31.658  23.000
  562 2.860 2.482  3.238 1.000 1.00000 2.860 1.000    102.864  23.000
  563 2.750 2.383  3.117 1.000 1.00000 2.750 1.000      9.079  23.000
  564 2.790 2.419  3.161 1.000 1.00000 2.790 1.000     50.544  23.000
  565 2.750 2.383  3.117 1.000 1.00000 2.750 1.000     24.262  23.000
  566 2.830 2.455  3.205 1.000 1.00000 2.830 1.000     27.119  23.000
  567 2.750 2.383  3.117 1.000 1.00000 2.750 1.000      7.814  23.000
  568 2.750 2.383  3.117 1.000 1.00000 2.750 1.000     11.990  23.000
  569 2.830 2.455  3.205 1.000 1.00000 2.830 1.000     19.756  23.000
  570 2.750 2.383  3.117 1.000 1.00000 2.750 1.000      2.309  23.000
  571 2.760 2.392  3.128 1.000 1.00000 2.760 1.000     14.546  23.000
  572 2.750 2.383  3.117 1.000 1.00000 2.750 1.000      7.088  23.000
  573 2.790 2.419  3.161 1.000 1.00000 2.790 1.000     16.585  23.000
  574 2.820 2.446  3.194 1.000 1.00000 2.820 1.000     47.137  23.000
  575 2.810 2.437  3.183 1.000 1.00000 2.810 1.000     36.004  23.000
  576 2.740 2.373  3.107 1.000 1.00000 2.740 1.000      1.735  23.000
  577 2.780 2.410  3.150 1.000 1.00000 2.780 1.000     48.432  23.000
  578 2.770 2.401  3.139 1.000 1.00000 2.770 1.000     27.183  23.000
  579 2.760 2.392  3.128 1.000 1.00000 2.760 1.000     16.313  23.000
  580 2.770 2.401  3.139 1.000 1.00000 2.770 1.000     44.477  23.000
  581 2.830 2.455  3.205 1.000 1.00000 2.830 1.000     32.996  23.000
  582 2.760 2.392  3.128 1.000 1.00000 2.760 1.000     26.244  23.000
  583 2.760 2.392  3.128 1.000 1.00000 2.760 1.000      6.749  23.000
  584 2.740 2.373  3.107 1.000 1.00000 2.740 1.000      1.569  23.000
  585 2.770 2.401  3.139 1.000 1.00000 2.770 1.000     22.603  23.000
  586 2.760 2.392  3.128 1.000 1.00000 2.760 1.000     20.791  23.000
  587 2.750 2.383  3.117 1.000 1.00000 2.750 1.000      7.697  23.000
  588 2.770 2.401  3.139 1.000 1.00000 2.770 1.000     17.579  23.000
  589 2.760 2.392  3.128 1.000 1.00000 2.760 1.000     29.007  23.000
  590 2.760 2.392  3.128 1.000 1.00000 2.760 1.000     21.118  23.000
  591 2.760 2.392  3.128 1.000 1.00000 2.760 1.000     22.634  23.000
  592 2.740 2.373  3.107 1.000 1.00000 2.740 1.000      2.289  23.000
  593 2.790 2.419  3.161 1.000 1.00000 2.790 1.000     24.214  23.000
  594 2.830 2.455  3.205 1.000 1.00000 2.830 1.000     19.965  23.000
  595 2.750 2.383  3.117 1.000 1.00000 2.750 1.000     24.486  23.000
  596 2.760 2.392  3.128 1.000 1.00000 2.760 1.000     18.117  23.000
  597 2.700 2.337  3.063 1.000 1.00000 2.700 1.000      0.227  23.000
  598 2.760 2.392  3.128 1.000 1.00000 2.760 1.000     16.687  23.000
  599 2.750 2.383  3.117 1.000 1.00000 2.750 1.000     32.157  23.000
  600 2.750 2.383  3.117 1.000 1.00000 2.750 1.000     15.609  23.000
  601 2.850 2.473  3.227 1.000 1.00000 2.850 1.000     65.838  23.000
  602 2.740 2.373  3.107 1.000 1.00000 2.740 1.000      3.674  23.000
  603 2.770 2.401  3.139 1.000 1.00000 2.770 1.000     15.351  23.000
  604 2.760 2.392  3.128 1.000 1.00000 2.760 1.000     13.913  23.000
  605 2.760 2.392  3.128 1.000 1.00000 2.760 1.000     26.232  23.000
  606 2.780 2.410  3.150 1.000 1.00000 2.780 1.000     35.682  23.000
  607 2.800 2.428  3.172 1.000 1.00000 2.800 1.000     24.487  23.000
  608 2.760 2.392  3.128 1.000 1.00000 2.760 1.000     20.174  23.000
  609 2.750 2.383  3.117 1.000 1.00000 2.750 1.000     14.427  23.000
  610 2.800 2.428  3.172 1.000 1.00000 2.800 1.000     38.230  23.000
  611 2.770 2.401  3.139 1.000 1.00000 2.770 1.000     25.351  23.000
  612 2.840 2.464  3.216 1.000 1.00000 2.840 1.000     21.578  23.000
  613 2.810 2.437  3.183 1.000 1.00000 2.810 1.000     19.754  23.000
  614 2.830 2.455  3.205 1.000 1.00000 2.830 1.000     41.627  23.000
  615 2.760 2.392  3.128 1.000 1.00000 2.760 1.000     25.718  23.000
  616 2.760 2.392  3.128 1.000 1.00000 2.760 1.000     26.392  23.000
  617 2.750 2.383  3.117 1.000 1.00000 2.750 1.000      6.767  23.000
  618 2.820 2.446  3.194 1.000 1.00000 2.820 1.000     23.612  23.000
  619 2.830 2.455  3.205 1.000 1.00000 2.830 1.000     37.389  23.000
  620 2.760 2.392  3.128 1.000 1.00000 2.760 1.000     16.569  23.000
  621 2.750 2.383  3.117 1.000 1.00000 2.750 1.000      8.411  23.000
  622 2.830 2.455  3.205 1.000 1.00000 2.830 1.000     33.510  23.000
  623 2.770 2.401  3.139 1.000 1.00000 2.770 1.000     18.125  23.000
  624 2.780 2.410  3.150 1.000 1.00000 2.780 1.000     20.621  23.000
  625 2.760 2.392  3.128 1.000 1.00000 2.760 1.000      7.455  23.000
  626 2.760 2.392  3.128 1.000 1.00000 2.760 1.000     20.453  23.000
  627 2.750 2.383  3.117 1.000 1.00000 2.750 1.000      9.766  23.000
  628 2.800 2.428  3.172 1.000 1.00000 2.800 1.000     22.573  23.000
  629 2.770 2.401  3.139 1.000 1.00000 2.770 1.000     32.819  23.000
  630 2.750 2.383  3.117 1.000 1.00000 2.750 1.000      5.523  23.000
  631 2.850 2.473  3.227 1.000 1.00000 2.850 1.000     30.896  23.000
  632 2.760 2.392  3.128 1.000 1.00000 2.760 1.000     14.561  23.000
  633 2.750 2.383  3.117 1.000 1.00000 2.750 1.000      5.974  23.000
  634 2.780 2.410  3.150 1.000 1.00000 2.780 1.000     32.803  23.000
  635 2.750 2.383  3.117 1.000 1.00000 2.750 1.000      8.137  23.000
  636 2.780 2.410  3.150 1.000 1.00000 2.780 1.000     11.567  23.000
  637 2.770 2.401  3.139 1.000 1.00000 2.770 1.000     16.246  23.000
  638 2.830 2.455  3.205 1.000 1.00000 2.830 1.000     42.404  23.000
  639 2.750 2.383  3.117 1.000 1.00000 2.750 1.000      8.647  23.000
  640 2.820 2.446  3.194 1.000 1.00000 2.820 1.000     59.767  23.000
  641 2.800 2.428  3.172 1.000 1.00000 2.800 1.000     19.532  23.000
  642 2.850 2.473  3.227 1.000 1.00000 2.850 1.000     58.983  23.000
  643 2.760 2.392  3.128 1.000 1.00000 2.760 1.000     16.945  23.000
  644 2.780 2.410  3.150 1.000 1.00000 2.780 1.000     30.487  23.000
  645 2.790 2.419  3.161 1.000 1.00000 2.790 1.000     13.250  23.000
  646 2.820 2.446  3.194 1.000 1.00000 2.820 1.000     52.689  23.000
  647 2.800 2.428  3.172 1.000 1.00000 2.800 1.000     16.980  23.000
  648 2.750 2.383  3.117 1.000 1.00000 2.750 1.000     23.857  23.000
  649 2.850 2.473  3.227 1.000 1.00000 2.850 1.000     54.433  23.000
  650 2.730 2.364  3.096 1.000 1.00000 2.730 1.000      1.199  23.000
  651 2.770 2.401  3.139 1.000 1.00000 2.770 1.000     20.663  23.000
  652 2.770 2.401  3.139 1.000 1.00000 2.770 1.000     25.437  23.000
  653 2.790 2.419  3.161 1.000 1.00000 2.790 1.000     15.653  23.000
  654 2.760 2.392  3.128 1.000 1.00000 2.760 1.000     29.125  23.000
  655 2.780 2.410  3.150 1.000 1.00000 2.780 1.000     32.951  23.000
  656 2.750 2.383  3.117 1.000 1.00000 2.750 1.000     13.287  23.000
  657 2.820 2.446  3.194 1.000 1.00000 2.820 1.000     59.627  23.000
  658 2.750 2.383  3.117 1.000 1.00000 2.750 1.000     24.096  23.000
  659 2.750 2.383  3.117 1.000 1.00000 2.750 1.000      8.471  23.000
  660 2.730 2.364  3.096 1.000 1.00000 2.730 1.000      2.664  23.000
  661 2.760 2.392  3.128 1.000 1.00000 2.760 1.000     17.388  23.000
  662 2.750 2.383  3.117 1.000 1.00000 2.750 1.000      9.187  23.000
  663 2.770 2.401  3.139 1.000 1.00000 2.770 1.000      5.668  23.000
  664 2.760 2.392  3.128 1.000 1.00000 2.760 1.000     12.934  23.000
  665 2.780 2.410  3.150 1.000 1.00000 2.780 1.000      9.004  23.000
  666 2.780 2.410  3.150 1.000 1.00000 2.780 1.000     12.475  23.000
  667 2.770 2.401  3.139 1.000 1.00000 2.770 1.000     29.775  23.000
  668 2.800 2.428  3.172 1.000 1.00000 2.800 1.000     55.195  23.000
  669 2.770 2.401  3.139 1.000 1.00000 2.770 1.000     30.190  23.000
  670 2.850 2.473  3.227 1.000 1.00000 2.850 1.000     47.008  23.000
  671 2.790 2.419  3.161 1.000 1.00000 2.790 1.000     16.732  23.000
  672 2.740 2.373  3.107 1.000 1.00000 2.740 1.000      1.554  23.000
  673 2.790 2.419  3.161 1.000 1.00000 2.790 1.000     38.367  23.000
  674 2.750 2.383  3.117 1.000 1.00000 2.750 1.000      2.452  23.000
  675 2.760 2.392  3.128 1.000 1.00000 2.760 1.000     22.843  23.000
  676 2.750 2.383  3.117 1.000 1.00000 2.750 1.000     27.292  23.000
  677 2.770 2.401  3.139 1.000 1.00000 2.770 1.000     17.894  23.000
  678 2.760 2.392  3.128 1.000 1.00000 2.760 1.000     18.356  23.000
  679 2.830 2.455  3.205 1.000 1.00000 2.830 1.000     46.099  23.000
  680 2.790 2.419  3.161 1.000 1.00000 2.790 1.000     23.211  23.000
  681 2.750 2.383  3.117 1.000 1.00000 2.750 1.000     16.434  23.000
  682 2.830 2.455  3.205 1.000 1.00000 2.830 1.000     28.612  23.000
  683 2.830 2.455  3.205 1.000 1.00000 2.830 1.000     33.134  23.000
  684 2.750 2.383  3.117 1.000 1.00000 2.750 1.000     15.166  23.000
  685 2.800 2.428  3.172 1.000 1.00000 2.800 1.000     25.536  23.000
  686 2.730 2.364  3.096 1.000 1.00000 2.730 1.000      2.262  23.000
  687 2.750 2.383  3.117 1.000 1.00000 2.750 1.000      6.645  23.000
  688 2.760 2.392  3.128 1.000 1.00000 2.760 1.000     30.417  23.000
  689 2.750 2.383  3.117 1.000 1.00000 2.750 1.000      8.884  23.000
  690 2.750 2.383  3.117 1.000 1.00000 2.750 1.000     17.087  23.000
  691 2.780 2.410  3.150 1.000 1.00000 2.780 1.000     21.032  23.000
  692 2.780 2.410  3.150 1.000 1.00000 2.780 1.000     44.763  23.000
  693 2.760 2.392  3.128 1.000 1.00000 2.760 1.000     27.167  23.000
  694 2.740 2.373  3.107 1.000 1.00000 2.740 1.000      1.509  23.000
  695 2.840 2.464  3.216 1.000 1.00000 2.840 1.000     37.485  23.000
  696 2.760 2.392  3.128 1.000 1.00000 2.760 1.000     12.578  23.000
  697 2.800 2.428  3.172 1.000 1.00000 2.800 1.000     12.598  23.000
  698 2.750 2.383  3.117 1.000 1.00000 2.750 1.000      5.439  23.000
  699 2.750 2.383  3.117 1.000 1.00000 2.750 1.000     14.045  23.000
  700 2.760 2.392  3.128 1.000 1.00000 2.760 1.000     17.997  23.000
  701 2.770 2.401  3.139 1.000 1.00000 2.770 1.000     20.982  23.000
  702 2.760 2.392  3.128 1.000 1.00000 2.760 1.000     26.063  23.000
  703 2.760 2.392  3.128 1.000 1.00000 2.760 1.000     24.104  23.000
  704 2.740 2.373  3.107 1.000 1.00000 2.740 1.000      1.520  23.000
  705 2.760 2.392  3.128 1.000 1.00000 2.760 1.000     19.032  23.000
  706 2.750 2.383  3.117 1.000 1.00000 2.750 1.000     21.851  23.000
  707 2.840 2.464  3.216 1.000 1.00000 2.840 1.000     51.243  23.000
  708 2.760 2.392  3.128 1.000 1.00000 2.760 1.000     14.184  23.000
  709 2.810 2.437  3.183 1.000 1.00000 2.810 1.000     45.582  23.000
  710 2.840 2.464  3.216 1.000 1.00000 2.840 1.000     44.108  23.000
  711 2.750 2.383  3.117 1.000 1.00000 2.750 1.000      5.812  23.000
  712 2.750 2.383  3.117 1.000 1.00000 2.750 1.000      3.987  23.000
  713 2.780 2.410  3.150 1.000 1.00000 2.780 1.000      8.087  23.000
  714 2.760 2.392  3.128 1.000 1.00000 2.760 1.000     13.948  23.000
  715 2.760 2.392  3.128 1.000 1.00000 2.760 1.000     26.431  23.000
  716 2.760 2.392  3.128 1.000 1.00000 2.760 1.000     13.806  23.000
  717 2.760 2.392  3.128 1.000 1.00000 2.760 1.000      4.390  23.000
  718 2.790 2.419  3.161 1.000 1.00000 2.790 1.000     17.391  23.000
  719 2.830 2.455  3.205 1.000 1.00000 2.830 1.000     26.341  23.000
  720 2.760 2.392  3.128 1.000 1.00000 2.760 1.000     19.565  23.000
  721 2.760 2.392  3.128 1.000 1.00000 2.760 1.000      7.297  23.000
  722 2.780 2.410  3.150 1.000 1.00000 2.780 1.000     27.662  23.000
  723 2.760 2.392  3.128 1.000 1.00000 2.760 1.000      9.834  23.000
  724 2.760 2.392  3.128 1.000 1.00000 2.760 1.000      6.031  23.000
  725 2.820 2.446  3.194 1.000 1.00000 2.820 1.000     26.015  23.000
  726 2.760 2.392  3.128 1.000 1.00000 2.760 1.000     15.517  23.000
  727 2.750 2.383  3.117 1.000 1.00000 2.750 1.000      9.018  23.000
  728 2.920 2.536  3.304 1.000 1.00000 2.920 1.000     99.128  23.000
  729 2.770 2.401  3.139 1.000 1.00000 2.770 1.000     24.493  23.000
  730 2.780 2.410  3.150 1.000 1.00000 2.780 1.000     19.416  23.000
  731 2.780 2.410  3.150 1.000 1.00000 2.780 1.000     17.350  23.000
  732 2.790 2.419  3.161 1.000 1.00000 2.790 1.000     33.142  23.000
  733 2.780 2.410  3.150 1.000 1.00000 2.780 1.000     31.151  23.000
  734 2.760 2.392  3.128 1.000 1.00000 2.760 1.000     12.937  23.000
  735 2.760 2.392  3.128 1.000 1.00000 2.760 1.000     14.160  23.000
  736 2.780 2.410  3.150 1.000 1.00000 2.780 1.000     28.481  23.000
  737 2.750 2.383  3.117 1.000 1.00000 2.750 1.000      6.300  23.000
  738 2.760 2.392  3.128 1.000 1.00000 2.760 1.000      5.900  23.000
  739 2.780 2.410  3.150 1.000 1.00000 2.780 1.000     18.706  23.000
  740 2.730 2.364  3.096 1.000 1.00000 2.730 1.000      2.820  23.000
  741 2.740 2.373  3.107 1.000 1.00000 2.740 1.000      9.262  23.000
  742 2.790 2.419  3.161 1.000 1.00000 2.790 1.000     24.459  23.000
  743 2.770 2.401  3.139 1.000 1.00000 2.770 1.000      6.281  23.000
  744 2.830 2.455  3.205 1.000 1.00000 2.830 1.000     47.000  23.000
  745 2.750 2.383  3.117 1.000 1.00000 2.750 1.000     14.133  23.000
  746 2.750 2.383  3.117 1.000 1.00000 2.750 1.000     16.266  23.000
  747 2.830 2.455  3.205 1.000 1.00000 2.830 1.000     23.103  23.000
  748 2.760 2.392  3.128 1.000 1.00000 2.760 1.000      8.831  23.000
  749 2.830 2.455  3.205 1.000 1.00000 2.830 1.000     25.901  23.000
  750 2.760 2.392  3.128 1.000 1.00000 2.760 1.000     29.967  23.000
  751 2.760 2.392  3.128 1.000 1.00000 2.760 1.000      4.291  23.000
  752 2.850 2.473  3.227 1.000 1.00000 2.850 1.000     50.277  23.000
  753 2.800 2.428  3.172 1.000 1.00000 2.800 1.000     18.012  23.000
  754 2.750 2.383  3.117 1.000 1.00000 2.750 1.000      7.684  23.000
  755 2.760 2.392  3.128 1.000 1.00000 2.760 1.000     16.213  23.000
  756 2.760 2.392  3.128 1.000 1.00000 2.760 1.000     29.859  23.000
  757 2.770 2.401  3.139 1.000 1.00000 2.770 1.000     26.541  23.000
  758 2.760 2.392  3.128 1.000 1.00000 2.760 1.000     29.503  23.000
  759 2.750 2.383  3.117 1.000 1.00000 2.750 1.000     12.257  23.000
  760 2.840 2.464  3.216 1.000 1.00000 2.840 1.000     48.257  23.000
  761 2.760 2.392  3.128 1.000 1.00000 2.760 1.000      5.237  23.000
  762 2.790 2.419  3.161 1.000 1.00000 2.790 1.000     52.935  23.000
  763 2.760 2.392  3.128 1.000 1.00000 2.760 1.000     11.181  23.000
  764 2.810 2.437  3.183 1.000 1.00000 2.810 1.000     23.475  23.000
  765 2.760 2.392  3.128 1.000 1.00000 2.760 1.000     20.808  23.000
  766 2.730 2.364  3.096 1.000 1.00000 2.730 1.000      1.603  23.000
  767 2.780 2.410  3.150 1.000 1.00000 2.780 1.000     36.439  23.000
  768 2.750 2.383  3.117 1.000 1.00000 2.750 1.000     14.068  23.000
  769 2.740 2.373  3.107 1.000 1.00000 2.740 1.000      2.717  23.000
  770 2.760 2.392  3.128 1.000 1.00000 2.760 1.000     19.850  23.000
  771 2.760 2.392  3.128 1.000 1.00000 2.760 1.000     14.863  23.000
  772 2.790 2.419  3.161 1.000 1.00000 2.790 1.000     29.738  23.000
  773 2.750 2.383  3.117 1.000 1.00000 2.750 1.000      4.330  23.000
  774 2.780 2.410  3.150 1.000 1.00000 2.780 1.000     29.370  23.000
  775 2.760 2.392  3.128 1.000 1.00000 2.760 1.000     13.556  23.000
  776 2.840 2.464  3.216 1.000 1.00000 2.840 1.000     38.500  23.000
  777 2.750 2.383  3.117 1.000 1.00000 2.750 1.000      5.938  23.000
  778 2.760 2.392  3.128 1.000 1.00000 2.760 1.000     14.660  23.000
  779 2.760 2.392  3.128 1.000 1.00000 2.760 1.000      5.164  23.000
  780 2.760 2.392  3.128 1.000 1.00000 2.760 1.000     12.473  23.000
  781 2.850 2.473  3.227 1.000 1.00000 2.850 1.000     59.500  23.000
  782 2.750 2.383  3.117 1.000 1.00000 2.750 1.000      4.102  23.000
  783 2.760 2.392  3.128 1.000 1.00000 2.760 1.000     22.906  23.000
  784 2.830 2.455  3.205 1.000 1.00000 2.830 1.000     41.627  23.000
  785 2.760 2.392  3.128 1.000 1.00000 2.760 1.000     13.896  23.000
  786 2.750 2.383  3.117 1.000 1.00000 2.750 1.000      9.795  23.000
  787 2.790 2.419  3.161 1.000 1.00000 2.790 1.000     19.627  23.000
  788 2.760 2.392  3.128 1.000 1.00000 2.760 1.000     16.198  23.000
  789 2.760 2.392  3.128 1.000 1.00000 2.760 1.000     23.764  23.000
  790 2.820 2.446  3.194 1.000 1.00000 2.820 1.000     45.226  23.000
  791 2.780 2.410  3.150 1.000 1.00000 2.780 1.000     11.141  23.000
  792 2.760 2.392  3.128 1.000 1.00000 2.760 1.000     20.460  23.000
  793 2.750 2.383  3.117 1.000 1.00000 2.750 1.000     19.071  23.000
  794 2.760 2.392  3.128 1.000 1.00000 2.760 1.000     21.406  23.000
  795 2.750 2.383  3.117 1.000 1.00000 2.750 1.000      3.764  23.000
  796 2.770 2.401  3.139 1.000 1.00000 2.770 1.000      9.079  23.000
  797 2.760 2.392  3.128 1.000 1.00000 2.760 1.000      8.477  23.000
  798 2.750 2.383  3.117 1.000 1.00000 2.750 1.000      8.131  23.000
  799 2.760 2.392  3.128 1.000 1.00000 2.760 1.000     14.743  23.000
  800 2.820 2.446  3.194 1.000 1.00000 2.820 1.000     30.506  23.000
  801 2.790 2.419  3.161 1.000 1.00000 2.790 1.000     26.967  23.000
  802 2.740 2.373  3.107 1.000 1.00000 2.740 1.000      2.712  23.000
  803 2.750 2.383  3.117 1.000 1.00000 2.750 1.000     21.088  23.000
  804 2.770 2.401  3.139 1.000 1.00000 2.770 1.000     29.824  23.000
  805 2.850 2.473  3.227 1.000 1.00000 2.850 1.000     40.003  23.000
  806 2.760 2.392  3.128 1.000 1.00000 2.760 1.000     17.148  23.000
  807 2.790 2.419  3.161 1.000 1.00000 2.790 1.000     20.109  23.000
  808 2.850 2.473  3.227 1.000 1.00000 2.850 1.000     57.539  23.000
  809 2.750 2.383  3.117 1.000 1.00000 2.750 1.000     15.867  23.000
  810 2.760 2.392  3.128 1.000 1.00000 2.760 1.000     11.614  23.000
  811 2.760 2.392  3.128 1.000 1.00000 2.760 1.000     33.570  23.000
  812 2.720 2.355  3.085 1.000 1.00000 2.720 1.000      1.054  23.000
  813 2.760 2.392  3.128 1.000 1.00000 2.760 1.000     11.628  23.000
  814 2.760 2.392  3.128 1.000 1.00000 2.760 1.000     20.686  23.000
  815 2.790 2.419  3.161 1.000 1.00000 2.790 1.000     16.276  23.000
  816 2.790 2.419  3.161 1.000 1.00000 2.790 1.000     19.629  23.000
  817 2.760 2.392  3.128 1.000 1.00000 2.760 1.000      7.860  23.000
  818 2.760 2.392  3.128 1.000 1.00000 2.760 1.000     12.320  23.000
  819 2.810 2.437  3.183 1.000 1.00000 2.810 1.000     47.349  23.000
  820 2.730 2.364  3.096 1.000 1.00000 2.730 1.000      8.889  23.000
  821 2.770 2.401  3.139 1.000 1.00000 2.770 1.000     17.898  23.000
  822 2.760 2.392  3.128 1.000 1.00000 2.760 1.000      7.685  23.000
  823 2.790 2.419  3.161 1.000 1.00000 2.790 1.000     16.763  23.000
  824 2.820 2.446  3.194 1.000 1.00000 2.820 1.000     32.131  23.000
  825 2.800 2.428  3.172 1.000 1.00000 2.800 1.000     29.812  23.000
  826 2.760 2.392  3.128 1.000 1.00000 2.760 1.000     11.257  23.000
  827 2.730 2.364  3.096 1.000 1.00000 2.730 1.000      1.504  23.000
  828 2.750 2.383  3.117 1.000 1.00000 2.750 1.000     13.421  23.000
  829 2.750 2.383  3.117 1.000 1.00000 2.750 1.000      6.142  23.000
  830 2.850 2.473  3.227 1.000 1.00000 2.850 1.000     37.772  23.000
  831 2.780 2.410  3.150 1.000 1.00000 2.780 1.000     10.290  23.000
  832 2.750 2.383  3.117 1.000 1.00000 2.750 1.000      2.772  23.000
  833 2.770 2.401  3.139 1.000 1.00000 2.770 1.000     26.195  23.000
  834 2.810 2.437  3.183 1.000 1.00000 2.810 1.000     14.015  23.000
  835 2.800 2.428  3.172 1.000 1.00000 2.800 1.000     16.901  23.000
  836 2.740 2.373  3.107 1.000 1.00000 2.740 1.000      8.393  23.000
  837 2.770 2.401  3.139 1.000 1.00000 2.770 1.000      7.471  23.000
  838 2.750 2.383  3.117 1.000 1.00000 2.750 1.000      7.448  23.000
  839 2.790 2.419  3.161 1.000 1.00000 2.790 1.000     14.287  23.000
  840 2.750 2.383  3.117 1.000 1.00000 2.750 1.000      5.940  23.000
  841 2.760 2.392  3.128 1.000 1.00000 2.760 1.000     10.188  23.000
  842 2.750 2.383  3.117 1.000 1.00000 2.750 1.000     17.314  23.000
  843 2.760 2.392  3.128 1.000 1.00000 2.760 1.000      7.686  23.000
  844 2.750 2.383  3.117 1.000 1.00000 2.750 1.000      7.943  23.000
  845 2.750 2.383  3.117 1.000 1.00000 2.750 1.000     26.176  23.000
  846 2.750 2.383  3.117 1.000 1.00000 2.750 1.000      8.404  23.000
  847 2.740 2.373  3.107 1.000 1.00000 2.740 1.000      3.069  23.000
  848 2.780 2.410  3.150 1.000 1.00000 2.780 1.000     27.478  23.000
  849 2.740 2.373  3.107 1.000 1.00000 2.740 1.000      8.255  23.000
  850 2.760 2.392  3.128 1.000 1.00000 2.760 1.000     11.793  23.000
  851 2.800 2.428  3.172 1.000 1.00000 2.800 1.000     25.684  23.000
  852 2.800 2.428  3.172 1.000 1.00000 2.800 1.000     21.776  23.000
  853 2.830 2.455  3.205 1.000 1.00000 2.830 1.000     56.839  23.000
  854 2.760 2.392  3.128 1.000 1.00000 2.760 1.000      8.225  23.000
  855 2.780 2.410  3.150 1.000 1.00000 2.780 1.000     35.077  23.000
  856 2.780 2.410  3.150 1.000 1.00000 2.780 1.000     35.660  23.000
  857 2.800 2.428  3.172 1.000 1.00000 2.800 1.000     36.656  23.000
  858 2.760 2.392  3.128 1.000 1.00000 2.760 1.000     26.818  23.000
  859 2.800 2.428  3.172 1.000 1.00000 2.800 1.000     17.364  23.000
  860 2.740 2.373  3.107 1.000 1.00000 2.740 1.000      3.300  23.000
  861 2.790 2.419  3.161 1.000 1.00000 2.790 1.000     28.509  23.000
  862 2.750 2.383  3.117 1.000 1.00000 2.750 1.000      8.159  23.000
  863 2.790 2.419  3.161 1.000 1.00000 2.790 1.000     16.164  23.000
  864 2.720 2.355  3.085 1.000 1.00000 2.720 1.000      0.762  23.000
  865 2.780 2.410  3.150 1.000 1.00000 2.780 1.000     39.563  23.000
  866 2.760 2.392  3.128 1.000 1.00000 2.760 1.000      6.387  23.000
  867 2.760 2.392  3.128 1.000 1.00000 2.760 1.000     10.138  23.000
  868 2.820 2.446  3.194 1.000 1.00000 2.820 1.000     62.212  23.000
  869 2.830 2.455  3.205 1.000 1.00000 2.830 1.000     23.264  23.000
  870 2.750 2.383  3.117 1.000 1.00000 2.750 1.000      2.572  23.000
  871 2.770 2.401  3.139 1.000 1.00000 2.770 1.000     12.522  23.000
  872 2.760 2.392  3.128 1.000 1.00000 2.760 1.000     11.704  23.000
  873 2.760 2.392  3.128 1.000 1.00000 2.760 1.000     12.040  23.000
  874 2.790 2.419  3.161 1.000 1.00000 2.790 1.000     22.286  23.000
  875 2.750 2.383  3.117 1.000 1.00000 2.750 1.000      7.092  23.000
  876 2.750 2.383  3.117 1.000 1.00000 2.750 1.000      6.296  23.000
  877 2.810 2.437  3.183 1.000 1.00000 2.810 1.000     50.187  23.000
  878 2.720 2.355  3.085 1.000 1.00000 2.720 1.000      1.382  23.000
  879 2.760 2.392  3.128 1.000 1.00000 2.760 1.000     14.927  23.000
  880 2.760 2.392  3.128 1.000 1.00000 2.760 1.000     15.273  23.000
  881 2.770 2.401  3.139 1.000 1.00000 2.770 1.000     22.313  23.000
  882 2.760 2.392  3.128 1.000 1.00000 2.760 1.000     19.520  23.000
  883 2.750 2.383  3.117 1.000 1.00000 2.750 1.000      9.518  23.000
  884 2.760 2.392  3.128 1.000 1.00000 2.760 1.000     14.898  23.000
  885 2.840 2.464  3.216 1.000 1.00000 2.840 1.000     40.904  23.000
  886 2.750 2.383  3.117 1.000 1.00000 2.750 1.000      7.729  23.000
  887 2.850 2.473  3.227 1.000 1.00000 2.850 1.000     23.125  23.000
  888 2.740 2.373  3.107 1.000 1.00000 2.740 1.000      5.792  23.000
  889 2.750 2.383  3.117 1.000 1.00000 2.750 1.000      2.410  23.000
  890 2.750 2.383  3.117 1.000 1.00000 2.750 1.000      5.841  23.000
  891 2.780 2.410  3.150 1.000 1.00000 2.780 1.000     29.112  23.000
  892 2.760 2.392  3.128 1.000 1.00000 2.760 1.000      5.408  23.000
  893 2.770 2.401  3.139 1.000 1.00000 2.770 1.000     30.801  23.000
  894 2.760 2.392  3.128 1.000 1.00000 2.760 1.000     32.270  23.000
  895 2.730 2.364  3.096 1.000 1.00000 2.730 1.000      2.724  23.000
  896 2.760 2.392  3.128 1.000 1.00000 2.760 1.000     17.275  23.000
  897 2.780 2.410  3.150 1.000 1.00000 2.780 1.000     28.607  23.000
  898 2.760 2.392  3.128 1.000 1.00000 2.760 1.000     11.107  23.000
  899 2.760 2.392  3.128 1.000 1.00000 2.760 1.000     17.588  23.000
  900 2.800 2.428  3.172 1.000 1.00000 2.800 1.000     20.845  23.000
  901 2.760 2.392  3.128 1.000 1.00000 2.760 1.000     12.693  23.000
  902 2.820 2.446  3.194 1.000 1.00000 2.820 1.000     47.554  23.000
  903 2.770 2.401  3.139 1.000 1.00000 2.770 1.000     31.857  23.000
  904 2.770 2.401  3.139 1.000 1.00000 2.770 1.000      8.794  23.000
  905 2.760 2.392  3.128 1.000 1.00000 2.760 1.000     16.609  23.000
  906 2.750 2.383  3.117 1.000 1.00000 2.750 1.000      7.369  23.000
  907 2.750 2.383  3.117 1.000 1.00000 2.750 1.000      9.404  23.000
  908 2.750 2.383  3.117 1.000 1.00000 2.750 1.000     12.411  23.000
  909 2.760 2.392  3.128 1.000 1.00000 2.760 1.000     12.218  23.000
  910 2.760 2.392  3.128 1.000 1.00000 2.760 1.000     21.101  23.000
  911 2.700 2.337  3.063 1.000 1.00000 2.700 1.000      1.137  23.000
  912 2.760 2.392  3.128 1.000 1.00000 2.760 1.000     25.760  23.000
  913 2.800 2.428  3.172 1.000 1.00000 2.800 1.000     23.557  23.000
  914 2.800 2.428  3.172 1.000 1.00000 2.800 1.000     25.296  23.000
  915 2.840 2.464  3.216 1.000 1.00000 2.840 1.000     42.020  23.000
  916 2.770 2.401  3.139 1.000 1.00000 2.770 1.000      9.665  23.000
  917 2.760 2.392  3.128 1.000 1.00000 2.760 1.000      7.460  23.000
  918 2.820 2.446  3.194 1.000 1.00000 2.820 1.000     23.282  23.000
  919 2.830 2.455  3.205 1.000 1.00000 2.830 1.000     50.655  23.000
  920 2.800 2.428  3.172 1.000 1.00000 2.800 1.000     30.022  23.000
  921 2.760 2.392  3.128 1.000 1.00000 2.760 1.000     14.195  23.000
  922 2.750 2.383  3.117 1.000 1.00000 2.750 1.000     13.450  23.000
  923 2.760 2.392  3.128 1.000 1.00000 2.760 1.000     12.856  23.000
  924 2.750 2.383  3.117 1.000 1.00000 2.750 1.000     10.196  23.000
  925 2.790 2.419  3.161 1.000 1.00000 2.790 1.000     15.510  23.000
  926 2.770 2.401  3.139 1.000 1.00000 2.770 1.000     11.159  23.000
  927 2.790 2.419  3.161 1.000 1.00000 2.790 1.000     18.687  23.000
  928 2.790 2.419  3.161 1.000 1.00000 2.790 1.000     18.333  23.000
  929 2.760 2.392  3.128 1.000 1.00000 2.760 1.000     28.032  23.000
  930 2.780 2.410  3.150 1.000 1.00000 2.780 1.000     31.224  23.000
  931 2.750 2.383  3.117 1.000 1.00000 2.750 1.000     12.500  23.000
  932 2.770 2.401  3.139 1.000 1.00000 2.770 1.000     12.516  23.000
  933 2.820 2.446  3.194 1.000 1.00000 2.820 1.000     31.453  23.000
  934 2.780 2.410  3.150 1.000 1.00000 2.780 1.000     14.605  23.000
  935 2.750 2.383  3.117 1.000 1.00000 2.750 1.000     12.236  23.000
  936 2.770 2.401  3.139 1.000 1.00000 2.770 1.000     15.188  23.000
  937 2.820 2.446  3.194 1.000 1.00000 2.820 1.000     36.433  23.000
  938 2.750 2.383  3.117 1.000 1.00000 2.750 1.000      6.455  23.000
  939 2.750 2.383  3.117 1.000 1.00000 2.750 1.000     15.965  23.000
  940 2.760 2.392  3.128 1.000 1.00000 2.760 1.000     13.371  23.000
  941 2.780 2.410  3.150 1.000 1.00000 2.780 1.000     15.152  23.000
  942 2.760 2.392  3.128 1.000 1.00000 2.760 1.000     17.940  23.000
  943 2.820 2.446  3.194 1.000 1.00000 2.820 1.000     18.529  23.000
  944 2.790 2.419  3.161 1.000 1.00000 2.790 1.000     25.683  23.000
  945 2.760 2.392  3.128 1.000 1.00000 2.760 1.000     12.462  23.000
  946 2.750 2.383  3.117 1.000 1.00000 2.750 1.000     13.360  23.000
  947 2.790 2.419  3.161 1.000 1.00000 2.790 1.000     48.021  23.000
  948 2.800 2.428  3.172 1.000 1.00000 2.800 1.000     23.783  23.000
  949 2.760 2.392  3.128 1.000 1.00000 2.760 1.000     24.277  23.000
  950 2.830 2.455  3.205 1.000 1.00000 2.830 1.000     23.472  23.000
  951 2.760 2.392  3.128 1.000 1.00000 2.760 1.000     18.589  23.000
  952 2.760 2.392  3.128 1.000 1.00000 2.760 1.000     23.515  23.000
  953 2.820 2.446  3.194 1.000 1.00000 2.820 1.000     28.055  23.000
  954 2.850 2.473  3.227 1.000 1.00000 2.850 1.000     56.882  23.000
  955 2.740 2.373  3.107 1.000 1.00000 2.740 1.000      5.732  23.000
  956 2.750 2.383  3.117 1.000 1.00000 2.750 1.000     11.526  23.000
  957 2.780 2.410  3.150 1.000 1.00000 2.780 1.000     22.032  23.000
  958 2.750 2.383  3.117 1.000 1.00000 2.750 1.000     12.982  23.000
  959 2.760 2.392  3.128 1.000 1.00000 2.760 1.000      6.768  23.000
  960 2.750 2.383  3.117 1.000 1.00000 2.750 1.000      2.311  23.000
  961 2.750 2.383  3.117 1.000 1.00000 2.750 1.000      4.847  23.000
  962 2.750 2.383  3.117 1.000 1.00000 2.750 1.000      8.532  23.000
  963 2.790 2.419  3.161 1.000 1.00000 2.790 1.000     33.108  23.000
  964 2.760 2.392  3.128 1.000 1.00000 2.760 1.000     24.830  23.000
  965 2.760 2.392  3.128 1.000 1.00000 2.760 1.000     11.563  23.000
  966 2.790 2.419  3.161 1.000 1.00000 2.790 1.000     13.955  23.000
  967 2.760 2.392  3.128 1.000 1.00000 2.760 1.000      8.084  23.000
  968 2.760 2.392  3.128 1.000 1.00000 2.760 1.000      6.166  23.000
  969 2.790 2.419  3.161 1.000 1.00000 2.790 1.000     33.308  23.000
  970 2.770 2.401  3.139 1.000 1.00000 2.770 1.000     11.669  23.000
  971 2.800 2.428  3.172 1.000 1.00000 2.800 1.000     17.038  23.000
  972 2.760 2.392  3.128 1.000 1.00000 2.760 1.000     24.982  23.000
  973 2.830 2.455  3.205 1.000 1.00000 2.830 1.000     31.655  23.000
  974 2.820 2.446  3.194 1.000 1.00000 2.820 1.000     62.387  23.000
  975 2.840 2.464  3.216 1.000 1.00000 2.840 1.000     53.382  23.000
  976 2.760 2.392  3.128 1.000 1.00000 2.760 1.000     30.764  23.000
  977 2.760 2.392  3.128 1.000 1.00000 2.760 1.000     28.031  23.000
  978 2.730 2.364  3.096 1.000 1.00000 2.730 1.000      3.164  23.000
  979 2.810 2.437  3.183 1.000 1.00000 2.810 1.000     44.459  23.000
  980 2.760 2.392  3.128 1.000 1.00000 2.760 1.000     11.024  23.000
  981 2.800 2.428  3.172 1.000 1.00000 2.800 1.000     33.214  23.000
  982 2.750 2.383  3.117 1.000 1.00000 2.750 1.000      6.393  23.000
  983 2.750 2.383  3.117 1.000 1.00000 2.750 1.000      2.984  23.000
  984 2.760 2.392  3.128 1.000 1.00000 2.760 1.000     14.477  23.000
  985 2.780 2.410  3.150 1.000 1.00000 2.780 1.000     28.836  23.000
  986 2.750 2.383  3.117 1.000 1.00000 2.750 1.000     29.708  23.000
  987 2.800 2.428  3.172 1.000 1.00000 2.800 1.000     13.466  23.000
  988 2.790 2.419  3.161 1.000 1.00000 2.790 1.000     15.032  23.000
  989 2.760 2.392  3.128 1.000 1.00000 2.760 1.000     18.008  23.000
  990 2.760 2.392  3.128 1.000 1.00000 2.760 1.000      7.929  23.000
  991 2.750 2.383  3.117 1.000 1.00000 2.750 1.000      5.925  23.000
  992 2.790 2.419  3.161 1.000 1.00000 2.790 1.000     21.255  23.000
  993 2.700 2.337  3.063 1.000 1.00000 2.700 1.000      0.305  23.000
  994 2.790 2.419  3.161 1.000 1.00000 2.790 1.000     33.159  23.000
  995 2.760 2.392  3.128 1.000 1.00000 2.760 1.000     13.129  23.000
  996 2.790 2.419  3.161 1.000 1.00000 2.790 1.000     36.254  23.000
  997 2.740 2.373  3.107 1.000 1.00000 2.740 1.000      4.226  23.000
  998 2.760 2.392  3.128 1.000 1.00000 2.760 1.000     29.529  23.000
  999 2.760 2.392  3.128 1.000 1.00000 2.760 1.000     20.782  23.000
 1000 2.780 2.410  3.150 1.000 1.00000 2.780 1.000     16.581  23.000
 1001 2.780 2.410  3.150 1.000 1.00000 2.780 1.000      7.731  23.000
 1002 2.760 2.392  3.128 1.000 1.00000 2.760 1.000      3.525  23.000
 1003 2.780 2.410  3.150 1.000 1.00000 2.780 1.000     35.082  23.000
 1004 2.780 2.410  3.150 1.000 1.00000 2.780 1.000     47.681  23.000
 1005 2.850 2.473  3.227 1.000 1.00000 2.850 1.000     51.389  23.000
 1006 2.730 2.364  3.096 1.000 1.00000 2.730 1.000      0.901  23.000
 1007 2.860 2.482  3.238 1.000 1.00000 2.860 1.000     90.202  23.000
 1008 2.780 2.410  3.150 1.000 1.00000 2.780 1.000     14.917  23.000
 1009 2.790 2.419  3.161 1.000 1.00000 2.790 1.000     15.264  23.000
 1010 2.810 2.437  3.183 1.000 1.00000 2.810 1.000     36.226  23.000
 1011 2.780 2.410  3.150 1.000 1.00000 2.780 1.000     26.251  23.000
 1012 2.830 2.455  3.205 1.000 1.00000 2.830 1.000     28.924  23.000
 1013 2.770 2.401  3.139 1.000 1.00000 2.770 1.000     14.449  23.000
 1014 2.780 2.410  3.150 1.000 1.00000 2.780 1.000     29.543  23.000
 1015 2.750 2.383  3.117 1.000 1.00000 2.750 1.000     28.618  23.000
 1016 2.750 2.383  3.117 1.000 1.00000 2.750 1.000      3.346  23.000
 1017 2.750 2.383  3.117 1.000 1.00000 2.750 1.000      4.310  23.000
 1018 2.770 2.401  3.139 1.000 1.00000 2.770 1.000      7.847  23.000
 1019 2.850 2.473  3.227 1.000 1.00000 2.850 1.000     69.752  23.000
 1020 2.760 2.392  3.128 1.000 1.00000 2.760 1.000     13.197  23.000
 1021 2.800 2.428  3.172 1.000 1.00000 2.800 1.000     21.841  23.000
 1022 2.770 2.401  3.139 1.000 1.00000 2.770 1.000     28.296  23.000
 1023 2.750 2.383  3.117 1.000 1.00000 2.750 1.000      3.345  23.000
 1024 2.770 2.401  3.139 1.000 1.00000 2.770 1.000     14.806  23.000
 1025 2.830 2.455  3.205 1.000 1.00000 2.830 1.000     30.116  23.000
 1026 2.760 2.392  3.128 1.000 1.00000 2.760 1.000     42.476  23.000
 1027 2.750 2.383  3.117 1.000 1.00000 2.750 1.000     20.142  23.000
 1028 2.850 2.473  3.227 1.000 1.00000 2.850 1.000     44.475  23.000
 1029 2.770 2.401  3.139 1.000 1.00000 2.770 1.000      9.427  23.000
 1030 2.750 2.383  3.117 1.000 1.00000 2.750 1.000      4.474  23.000
 1031 2.800 2.428  3.172 1.000 1.00000 2.800 1.000     45.454  23.000
 1032 2.770 2.401  3.139 1.000 1.00000 2.770 1.000      9.268  23.000
 1033 2.750 2.383  3.117 1.000 1.00000 2.750 1.000     12.224  23.000
 1034 2.760 2.392  3.128 1.000 1.00000 2.760 1.000     28.186  23.000
 1035 2.760 2.392  3.128 1.000 1.00000 2.760 1.000     22.480  23.000
 1036 2.850 2.473  3.227 1.000 1.00000 2.850 1.000     45.793  23.000
 1037 2.850 2.473  3.227 1.000 1.00000 2.850 1.000     29.790  23.000
 1038 2.750 2.383  3.117 1.000 1.00000 2.750 1.000      5.527  23.000
 1039 2.750 2.383  3.117 1.000 1.00000 2.750 1.000      3.677  23.000
 1040 2.750 2.383  3.117 1.000 1.00000 2.750 1.000      7.649  23.000
 1041 2.830 2.455  3.205 1.000 1.00000 2.830 1.000     35.184  23.000
 1042 2.740 2.373  3.107 1.000 1.00000 2.740 1.000      2.436  23.000
 1043 2.770 2.401  3.139 1.000 1.00000 2.770 1.000     47.254  23.000
 1044 2.760 2.392  3.128 1.000 1.00000 2.760 1.000     11.412  23.000
 1045 2.750 2.383  3.117 1.000 1.00000 2.750 1.000      4.609  23.000
 1046 2.750 2.383  3.117 1.000 1.00000 2.750 1.000     18.807  23.000
 1047 2.750 2.383  3.117 1.000 1.00000 2.750 1.000     11.616  23.000
 1048 2.750 2.383  3.117 1.000 1.00000 2.750 1.000      5.974  23.000
 1049 2.760 2.392  3.128 1.000 1.00000 2.760 1.000      8.491  23.000
 1050 2.760 2.392  3.128 1.000 1.00000 2.760 1.000      3.390  23.000
 1051 2.820 2.446  3.194 1.000 1.00000 2.820 1.000     36.809  23.000
 1052 2.740 2.373  3.107 1.000 1.00000 2.740 1.000      9.612  23.000
 1053 2.760 2.392  3.128 1.000 1.00000 2.760 1.000     21.289  23.000
 1054 2.760 2.392  3.128 1.000 1.00000 2.760 1.000      7.836  23.000
 1055 2.750 2.383  3.117 1.000 1.00000 2.750 1.000     11.627  23.000
 1056 2.760 2.392  3.128 1.000 1.00000 2.760 1.000     18.705  23.000
 1057 2.740 2.373  3.107 1.000 1.00000 2.740 1.000     12.961  23.000
 1058 2.770 2.401  3.139 1.000 1.00000 2.770 1.000     34.051  23.000
 1059 2.750 2.383  3.117 1.000 1.00000 2.750 1.000     14.279  23.000
 1060 2.750 2.383  3.117 1.000 1.00000 2.750 1.000     11.043  23.000
 1061 2.760 2.392  3.128 1.000 1.00000 2.760 1.000     28.030  23.000
 1062 2.760 2.392  3.128 1.000 1.00000 2.760 1.000      7.814  23.000
 1063 2.760 2.392  3.128 1.000 1.00000 2.760 1.000     27.574  23.000
 1064 2.800 2.428  3.172 1.000 1.00000 2.800 1.000     29.207  23.000
 1065 2.750 2.383  3.117 1.000 1.00000 2.750 1.000     12.531  23.000
 1066 2.760 2.392  3.128 1.000 1.00000 2.760 1.000     12.811  23.000
 1067 2.800 2.428  3.172 1.000 1.00000 2.800 1.000     37.893  23.000
 1068 2.800 2.428  3.172 1.000 1.00000 2.800 1.000     19.535  23.000
 1069 2.810 2.437  3.183 1.000 1.00000 2.810 1.000     39.816  23.000
 1070 2.750 2.383  3.117 1.000 1.00000 2.750 1.000      4.057  23.000
 1071 2.760 2.392  3.128 1.000 1.00000 2.760 1.000     19.185  23.000
 1072 2.760 2.392  3.128 1.000 1.00000 2.760 1.000     12.766  23.000
 1073 2.820 2.446  3.194 1.000 1.00000 2.820 1.000     29.789  23.000
 1074 2.780 2.410  3.150 1.000 1.00000 2.780 1.000     23.804  23.000
 1075 2.790 2.419  3.161 1.000 1.00000 2.790 1.000     25.658  23.000
 1076 2.750 2.383  3.117 1.000 1.00000 2.750 1.000      8.079  23.000
 1077 2.750 2.383  3.117 1.000 1.00000 2.750 1.000      2.941  23.000
 1078 2.760 2.392  3.128 1.000 1.00000 2.760 1.000      5.050  23.000
 1079 2.750 2.383  3.117 1.000 1.00000 2.750 1.000      2.607  23.000
 1080 2.800 2.428  3.172 1.000 1.00000 2.800 1.000     15.737  23.000
 1081 2.760 2.392  3.128 1.000 1.00000 2.760 1.000     37.949  23.000
 1082 2.850 2.473  3.227 1.000 1.00000 2.850 1.000     44.262  23.000
 1083 2.850 2.473  3.227 1.000 1.00000 2.850 1.000     54.743  23.000
 1084 2.730 2.364  3.096 1.000 1.00000 2.730 1.000      7.776  23.000
 1085 2.790 2.419  3.161 1.000 1.00000 2.790 1.000     28.976  23.000
 1086 2.780 2.410  3.150 1.000 1.00000 2.780 1.000     19.972  23.000
 1087 2.770 2.401  3.139 1.000 1.00000 2.770 1.000      7.403  23.000
 1088 2.760 2.392  3.128 1.000 1.00000 2.760 1.000     11.412  23.000
 1089 2.830 2.455  3.205 1.000 1.00000 2.830 1.000     31.632  23.000
 1090 2.760 2.392  3.128 1.000 1.00000 2.760 1.000     13.533  23.000
 1091 2.760 2.392  3.128 1.000 1.00000 2.760 1.000      9.886  23.000
 1092 2.760 2.392  3.128 1.000 1.00000 2.760 1.000     23.902  23.000
 1093 2.760 2.392  3.128 1.000 1.00000 2.760 1.000     12.383  23.000
 1094 2.740 2.373  3.107 1.000 1.00000 2.740 1.000     12.435  23.000
 1095 2.760 2.392  3.128 1.000 1.00000 2.760 1.000     15.691  23.000
 1096 2.820 2.446  3.194 1.000 1.00000 2.820 1.000     27.615  23.000
 1097 2.780 2.410  3.150 1.000 1.00000 2.780 1.000     17.400  23.000
 1098 2.760 2.392  3.128 1.000 1.00000 2.760 1.000     28.724  23.000
 1099 2.750 2.383  3.117 1.000 1.00000 2.750 1.000      4.878  23.000
 1100 2.760 2.392  3.128 1.000 1.00000 2.760 1.000     22.329  23.000
 1101 2.740 2.373  3.107 1.000 1.00000 2.740 1.000      1.751  23.000
 1102 2.770 2.401  3.139 1.000 1.00000 2.770 1.000      5.865  23.000
 1103 2.750 2.383  3.117 1.000 1.00000 2.750 1.000     16.552  23.000
 1104 2.750 2.383  3.117 1.000 1.00000 2.750 1.000     21.840  23.000
 1105 2.760 2.392  3.128 1.000 1.00000 2.760 1.000      4.989  23.000
 1106 2.760 2.392  3.128 1.000 1.00000 2.760 1.000     26.521  23.000
 1107 2.810 2.437  3.183 1.000 1.00000 2.810 1.000     21.816  23.000
 1108 2.750 2.383  3.117 1.000 1.00000 2.750 1.000      4.163  23.000
 1109 2.800 2.428  3.172 1.000 1.00000 2.800 1.000     27.268  23.000
 1110 2.780 2.410  3.150 1.000 1.00000 2.780 1.000      7.901  23.000
 1111 2.780 2.410  3.150 1.000 1.00000 2.780 1.000     18.959  23.000
 1112 2.760 2.392  3.128 1.000 1.00000 2.760 1.000     13.544  23.000
 1113 2.750 2.383  3.117 1.000 1.00000 2.750 1.000     22.742  23.000
 1114 2.750 2.383  3.117 1.000 1.00000 2.750 1.000     14.682  23.000
 1115 2.750 2.383  3.117 1.000 1.00000 2.750 1.000     14.450  23.000
 1116 2.750 2.383  3.117 1.000 1.00000 2.750 1.000      6.924  23.000
 1117 2.810 2.437  3.183 1.000 1.00000 2.810 1.000     29.592  23.000
 1118 2.790 2.419  3.161 1.000 1.00000 2.790 1.000     28.404  23.000
 1119 2.800 2.428  3.172 1.000 1.00000 2.800 1.000     34.061  23.000
 1120 2.850 2.473  3.227 1.000 1.00000 2.850 1.000     66.293  23.000
 1121 2.720 2.355  3.085 1.000 1.00000 2.720 1.000      2.383  23.000
 1122 2.750 2.383  3.117 1.000 1.00000 2.750 1.000      3.848  23.000
 1123 2.770 2.401  3.139 1.000 1.00000 2.770 1.000     11.695  23.000
 1124 2.760 2.392  3.128 1.000 1.00000 2.760 1.000      8.944  23.000
 1125 2.830 2.455  3.205 1.000 1.00000 2.830 1.000     72.116  23.000
 1126 2.750 2.383  3.117 1.000 1.00000 2.750 1.000      6.417  23.000
 1127 2.760 2.392  3.128 1.000 1.00000 2.760 1.000      5.270  23.000
 1128 2.760 2.392  3.128 1.000 1.00000 2.760 1.000     14.366  23.000
 1129 2.800 2.428  3.172 1.000 1.00000 2.800 1.000     33.240  23.000
 1130 2.750 2.383  3.117 1.000 1.00000 2.750 1.000      5.669  23.000
 1131 2.770 2.401  3.139 1.000 1.00000 2.770 1.000     12.118  23.000
 1132 2.780 2.410  3.150 1.000 1.00000 2.780 1.000     24.868  23.000
 1133 2.820 2.446  3.194 1.000 1.00000 2.820 1.000     53.243  23.000
 1134 2.760 2.392  3.128 1.000 1.00000 2.760 1.000      5.071  23.000
 1135 2.750 2.383  3.117 1.000 1.00000 2.750 1.000      3.535  23.000
 1136 2.790 2.419  3.161 1.000 1.00000 2.790 1.000     26.186  23.000
 1137 2.760 2.392  3.128 1.000 1.00000 2.760 1.000     17.159  23.000
 1138 2.810 2.437  3.183 1.000 1.00000 2.810 1.000     26.594  23.000
 1139 2.780 2.410  3.150 1.000 1.00000 2.780 1.000     37.447  23.000
 1140 2.760 2.392  3.128 1.000 1.00000 2.760 1.000     30.715  23.000
 1141 2.820 2.446  3.194 1.000 1.00000 2.820 1.000     42.609  23.000
 1142 2.750 2.383  3.117 1.000 1.00000 2.750 1.000      4.823  23.000
 1143 2.750 2.383  3.117 1.000 1.00000 2.750 1.000     17.156  23.000
 1144 2.780 2.410  3.150 1.000 1.00000 2.780 1.000     31.408  23.000
 1145 2.830 2.455  3.205 1.000 1.00000 2.830 1.000     52.664  23.000
 1146 2.760 2.392  3.128 1.000 1.00000 2.760 1.000     14.695  23.000
 1147 2.750 2.383  3.117 1.000 1.00000 2.750 1.000      9.604  23.000
 1148 2.750 2.383  3.117 1.000 1.00000 2.750 1.000      8.370  23.000
 1149 2.750 2.383  3.117 1.000 1.00000 2.750 1.000     16.385  23.000
 1150 2.790 2.419  3.161 1.000 1.00000 2.790 1.000     25.269  23.000
 1151 2.760 2.392  3.128 1.000 1.00000 2.760 1.000     39.814  23.000
 1152 2.790 2.419  3.161 1.000 1.00000 2.790 1.000     34.636  23.000
 1153 2.740 2.373  3.107 1.000 1.00000 2.740 1.000      2.954  23.000
 1154 2.840 2.464  3.216 1.000 1.00000 2.840 1.000     23.024  23.000
 1155 2.760 2.392  3.128 1.000 1.00000 2.760 1.000      9.886  23.000
 1156 2.760 2.392  3.128 1.000 1.00000 2.760 1.000     11.517  23.000
 1157 2.750 2.383  3.117 1.000 1.00000 2.750 1.000     13.239  23.000
 1158 2.750 2.383  3.117 1.000 1.00000 2.750 1.000     10.054  23.000
 1159 2.800 2.428  3.172 1.000 1.00000 2.800 1.000     25.331  23.000
 1160 2.820 2.446  3.194 1.000 1.00000 2.820 1.000     51.998  23.000
 1161 2.760 2.392  3.128 1.000 1.00000 2.760 1.000     22.650  23.000
 1162 2.760 2.392  3.128 1.000 1.00000 2.760 1.000     18.324  23.000
 1163 2.750 2.383  3.117 1.000 1.00000 2.750 1.000      5.429  23.000
 1164 2.760 2.392  3.128 1.000 1.00000 2.760 1.000     14.851  23.000
 1165 2.790 2.419  3.161 1.000 1.00000 2.790 1.000     53.449  23.000
 1166 2.740 2.373  3.107 1.000 1.00000 2.740 1.000     12.110  23.000
 1167 2.770 2.401  3.139 1.000 1.00000 2.770 1.000     28.405  23.000
 1168 2.750 2.383  3.117 1.000 1.00000 2.750 1.000      5.320  23.000
 1169 2.790 2.419  3.161 1.000 1.00000 2.790 1.000     42.093  23.000
 1170 2.770 2.401  3.139 1.000 1.00000 2.770 1.000     23.109  23.000
 1171 2.770 2.401  3.139 1.000 1.00000 2.770 1.000     11.984  23.000
 1172 2.760 2.392  3.128 1.000 1.00000 2.760 1.000     14.257  23.000
 1173 2.760 2.392  3.128 1.000 1.00000 2.760 1.000      4.007  23.000
 1174 2.820 2.446  3.194 1.000 1.00000 2.820 1.000     37.301  23.000
 1175 2.830 2.455  3.205 1.000 1.00000 2.830 1.000     49.545  23.000
 1176 2.810 2.437  3.183 1.000 1.00000 2.810 1.000     58.572  23.000
 1177 2.760 2.392  3.128 1.000 1.00000 2.760 1.000     21.132  23.000
 1178 2.760 2.392  3.128 1.000 1.00000 2.760 1.000      9.019  23.000
 1179 2.790 2.419  3.161 1.000 1.00000 2.790 1.000     31.984  23.000
 1180 2.880 2.500  3.260 1.000 1.00000 2.880 1.000     46.727  23.000
 1181 2.760 2.392  3.128 1.000 1.00000 2.760 1.000     11.382  23.000
 1182 2.760 2.392  3.128 1.000 1.00000 2.760 1.000     21.723  23.000
 1183 2.760 2.392  3.128 1.000 1.00000 2.760 1.000     14.417  23.000
 1184 2.810 2.437  3.183 1.000 1.00000 2.810 1.000     38.480  23.000
 1185 2.740 2.373  3.107 1.000 1.00000 2.740 1.000      3.933  23.000
 1186 2.750 2.383  3.117 1.000 1.00000 2.750 1.000      3.906  23.000
 1187 2.860 2.482  3.238 1.000 1.00000 2.860 1.000     61.906  23.000
 1188 2.810 2.437  3.183 1.000 1.00000 2.810 1.000     62.631  23.000
 1189 2.740 2.373  3.107 1.000 1.00000 2.740 1.000      6.232  23.000
 1190 2.760 2.392  3.128 1.000 1.00000 2.760 1.000      4.714  23.000
 1191 2.760 2.392  3.128 1.000 1.00000 2.760 1.000     25.928  23.000
 1192 2.760 2.392  3.128 1.000 1.00000 2.760 1.000     15.918  23.000
 1193 2.840 2.464  3.216 1.000 1.00000 2.840 1.000     36.254  23.000
 1194 2.740 2.373  3.107 1.000 1.00000 2.740 1.000      5.139  23.000
 1195 2.750 2.383  3.117 1.000 1.00000 2.750 1.000     37.081  23.000
 1196 2.750 2.383  3.117 1.000 1.00000 2.750 1.000     10.674  23.000
 1197 2.820 2.446  3.194 1.000 1.00000 2.820 1.000     43.668  23.000
 1198 2.760 2.392  3.128 1.000 1.00000 2.760 1.000     10.331  23.000
 1199 2.840 2.464  3.216 1.000 1.00000 2.840 1.000     48.019  23.000
 1200 2.760 2.392  3.128 1.000 1.00000 2.760 1.000     10.343  23.000
 1201 2.760 2.392  3.128 1.000 1.00000 2.760 1.000     13.185  23.000
 1202 2.730 2.364  3.096 1.000 1.00000 2.730 1.000      1.393  23.000
 1203 2.750 2.383  3.117 1.000 1.00000 2.750 1.000     12.974  23.000
 1204 2.760 2.392  3.128 1.000 1.00000 2.760 1.000     18.096  23.000
 1205 2.810 2.437  3.183 1.000 1.00000 2.810 1.000     23.749  23.000
 1206 2.760 2.392  3.128 1.000 1.00000 2.760 1.000      7.811  23.000
 1207 2.750 2.383  3.117 1.000 1.00000 2.750 1.000      8.111  23.000
 1208 2.740 2.373  3.107 1.000 1.00000 2.740 1.000      3.462  23.000
 1209 2.770 2.401  3.139 1.000 1.00000 2.770 1.000     12.922  23.000
 1210 2.760 2.392  3.128 1.000 1.00000 2.760 1.000     24.880  23.000
 1211 2.760 2.392  3.128 1.000 1.00000 2.760 1.000     13.169  23.000
 1212 2.800 2.428  3.172 1.000 1.00000 2.800 1.000     27.087  23.000
 1213 2.740 2.373  3.107 1.000 1.00000 2.740 1.000      4.189  23.000
 1214 2.750 2.383  3.117 1.000 1.00000 2.750 1.000      2.595  23.000
 1215 2.770 2.401  3.139 1.000 1.00000 2.770 1.000     26.985  23.000
 1216 2.760 2.392  3.128 1.000 1.00000 2.760 1.000     11.246  23.000
 1217 2.750 2.383  3.117 1.000 1.00000 2.750 1.000      7.966  23.000
 1218 2.750 2.383  3.117 1.000 1.00000 2.750 1.000      7.433  23.000
 1219 2.760 2.392  3.128 1.000 1.00000 2.760 1.000     17.989  23.000
 1220 2.760 2.392  3.128 1.000 1.00000 2.760 1.000     10.769  23.000
 1221 2.790 2.419  3.161 1.000 1.00000 2.790 1.000     37.465  23.000
 1222 2.810 2.437  3.183 1.000 1.00000 2.810 1.000     26.962  23.000
 1223 2.840 2.464  3.216 1.000 1.00000 2.840 1.000     25.826  23.000
 1224 2.720 2.355  3.085 1.000 1.00000 2.720 1.000      1.772  23.000
 1225 2.790 2.419  3.161 1.000 1.00000 2.790 1.000     21.947  23.000
 1226 2.820 2.446  3.194 1.000 1.00000 2.820 1.000     40.779  23.000
 1227 2.790 2.419  3.161 1.000 1.00000 2.790 1.000     21.165  23.000
 1228 2.800 2.428  3.172 1.000 1.00000 2.800 1.000     36.428  23.000
 1229 2.760 2.392  3.128 1.000 1.00000 2.760 1.000     18.335  23.000
 1230 2.750 2.383  3.117 1.000 1.00000 2.750 1.000      2.808  23.000
 1231 2.800 2.428  3.172 1.000 1.00000 2.800 1.000     21.266  23.000
 1232 2.740 2.373  3.107 1.000 1.00000 2.740 1.000      2.862  23.000
 1233 2.760 2.392  3.128 1.000 1.00000 2.760 1.000      8.851  23.000
 1234 2.800 2.428  3.172 1.000 1.00000 2.800 1.000     38.418  23.000
 1235 2.750 2.383  3.117 1.000 1.00000 2.750 1.000      3.900  23.000
 1236 2.800 2.428  3.172 1.000 1.00000 2.800 1.000     38.303  23.000
 1237 2.720 2.355  3.085 1.000 1.00000 2.720 1.000      0.761  23.000
 1238 2.780 2.410  3.150 1.000 1.00000 2.780 1.000     10.265  23.000
 1239 2.750 2.383  3.117 1.000 1.00000 2.750 1.000     11.859  23.000
 1240 2.770 2.401  3.139 1.000 1.00000 2.770 1.000     33.933  23.000
 1241 2.750 2.383  3.117 1.000 1.00000 2.750 1.000      2.923  23.000
 1242 2.750 2.383  3.117 1.000 1.00000 2.750 1.000      5.715  23.000
 1243 2.810 2.437  3.183 1.000 1.00000 2.810 1.000     33.904  23.000
 1244 2.750 2.383  3.117 1.000 1.00000 2.750 1.000      6.773  23.000
 1245 2.820 2.446  3.194 1.000 1.00000 2.820 1.000     44.331  23.000
 1246 2.810 2.437  3.183 1.000 1.00000 2.810 1.000     27.836  23.000
 1247 2.710 2.346  3.074 1.000 1.00000 2.710 1.000      3.692  23.000
 1248 2.760 2.392  3.128 1.000 1.00000 2.760 1.000     23.274  23.000
 1249 2.740 2.373  3.107 1.000 1.00000 2.740 1.000      1.658  23.000
 1250 2.760 2.392  3.128 1.000 1.00000 2.760 1.000     28.321  23.000
 1251 2.750 2.383  3.117 1.000 1.00000 2.750 1.000     17.025  23.000
 1252 2.760 2.392  3.128 1.000 1.00000 2.760 1.000      9.972  23.000
 1253 2.760 2.392  3.128 1.000 1.00000 2.760 1.000      8.237  23.000
 1254 2.740 2.373  3.107 1.000 1.00000 2.740 1.000      1.744  23.000
 1255 2.750 2.383  3.117 1.000 1.00000 2.750 1.000      3.707  23.000
 1256 2.760 2.392  3.128 1.000 1.00000 2.760 1.000      4.250  23.000
 1257 2.790 2.419  3.161 1.000 1.00000 2.790 1.000     18.204  23.000
 1258 2.760 2.392  3.128 1.000 1.00000 2.760 1.000      8.890  23.000
 1259 2.760 2.392  3.128 1.000 1.00000 2.760 1.000      5.965  23.000
 1260 2.770 2.401  3.139 1.000 1.00000 2.770 1.000     19.875  23.000
 1261 2.760 2.392  3.128 1.000 1.00000 2.760 1.000      6.663  23.000
 1262 2.770 2.401  3.139 1.000 1.00000 2.770 1.000     36.787  23.000
 1263 2.840 2.464  3.216 1.000 1.00000 2.840 1.000     60.724  23.000
 1264 2.770 2.401  3.139 1.000 1.00000 2.770 1.000     26.806  23.000
 1265 2.760 2.392  3.128 1.000 1.00000 2.760 1.000     14.451  23.000
 1266 2.790 2.419  3.161 1.000 1.00000 2.790 1.000     29.875  23.000
 1267 2.790 2.419  3.161 1.000 1.00000 2.790 1.000     34.865  23.000
 1268 2.760 2.392  3.128 1.000 1.00000 2.760 1.000      8.057  23.000
 1269 2.760 2.392  3.128 1.000 1.00000 2.760 1.000     30.429  23.000
 1270 2.760 2.392  3.128 1.000 1.00000 2.760 1.000     21.263  23.000
 1271 2.750 2.383  3.117 1.000 1.00000 2.750 1.000      5.177  23.000
 1272 2.760 2.392  3.128 1.000 1.00000 2.760 1.000     17.621  23.000
 1273 2.800 2.428  3.172 1.000 1.00000 2.800 1.000     28.616  23.000
 1274 2.760 2.392  3.128 1.000 1.00000 2.760 1.000     27.462  23.000
 1275 2.830 2.455  3.205 1.000 1.00000 2.830 1.000     28.686  23.000
 1276 2.740 2.373  3.107 1.000 1.00000 2.740 1.000      2.346  23.000
 1277 2.820 2.446  3.194 1.000 1.00000 2.820 1.000     31.306  23.000
 1278 2.760 2.392  3.128 1.000 1.00000 2.760 1.000     16.892  23.000
 1279 2.810 2.437  3.183 1.000 1.00000 2.810 1.000     27.792  23.000
 1280 2.750 2.383  3.117 1.000 1.00000 2.750 1.000      6.232  23.000
 1281 2.760 2.392  3.128 1.000 1.00000 2.760 1.000     19.479  23.000
 1282 2.800 2.428  3.172 1.000 1.00000 2.800 1.000     36.406  23.000
 1283 2.790 2.419  3.161 1.000 1.00000 2.790 1.000     42.766  23.000
 1284 2.760 2.392  3.128 1.000 1.00000 2.760 1.000     11.009  23.000
 1285 2.750 2.383  3.117 1.000 1.00000 2.750 1.000      6.040  23.000
 1286 2.800 2.428  3.172 1.000 1.00000 2.800 1.000     26.876  23.000
 1287 2.790 2.419  3.161 1.000 1.00000 2.790 1.000     17.020  23.000
 1288 2.720 2.355  3.085 1.000 1.00000 2.720 1.000      4.850  23.000
 1289 2.760 2.392  3.128 1.000 1.00000 2.760 1.000      7.735  23.000
 1290 2.770 2.401  3.139 1.000 1.00000 2.770 1.000     14.277  23.000
 1291 2.800 2.428  3.172 1.000 1.00000 2.800 1.000     27.136  23.000
 1292 2.760 2.392  3.128 1.000 1.00000 2.760 1.000      7.107  23.000
 1293 2.840 2.464  3.216 1.000 1.00000 2.840 1.000     59.769  23.000
 1294 2.750 2.383  3.117 1.000 1.00000 2.750 1.000     14.990  23.000
 1295 2.750 2.383  3.117 1.000 1.00000 2.750 1.000     17.827  23.000
 1296 2.760 2.392  3.128 1.000 1.00000 2.760 1.000     27.801  23.000
 1297 2.750 2.383  3.117 1.000 1.00000 2.750 1.000      8.535  23.000
 1298 2.780 2.410  3.150 1.000 1.00000 2.780 1.000     33.449  23.000
 1299 2.780 2.410  3.150 1.000 1.00000 2.780 1.000     29.491  23.000
 1300 2.750 2.383  3.117 1.000 1.00000 2.750 1.000      6.547  23.000
 1301 2.760 2.392  3.128 1.000 1.00000 2.760 1.000      7.268  23.000
 1302 2.750 2.383  3.117 1.000 1.00000 2.750 1.000      3.882  23.000
 1303 2.760 2.392  3.128 1.000 1.00000 2.760 1.000     19.606  23.000
 1304 2.760 2.392  3.128 1.000 1.00000 2.760 1.000     23.159  23.000
 1305 2.810 2.437  3.183 1.000 1.00000 2.810 1.000     41.913  23.000
 1306 2.720 2.355  3.085 1.000 1.00000 2.720 1.000      2.076  23.000
 1307 2.760 2.392  3.128 1.000 1.00000 2.760 1.000     20.993  23.000
 1308 2.820 2.446  3.194 1.000 1.00000 2.820 1.000     31.374  23.000
 1309 2.830 2.455  3.205 1.000 1.00000 2.830 1.000     51.196  23.000
 1310 2.750 2.383  3.117 1.000 1.00000 2.750 1.000      9.891  23.000
 1311 2.830 2.455  3.205 1.000 1.00000 2.830 1.000     49.253  23.000
 1312 2.740 2.373  3.107 1.000 1.00000 2.740 1.000      6.641  23.000
 1313 2.760 2.392  3.128 1.000 1.00000 2.760 1.000      9.588  23.000
 1314 2.770 2.401  3.139 1.000 1.00000 2.770 1.000     29.465  23.000
 1315 2.750 2.383  3.117 1.000 1.00000 2.750 1.000      8.701  23.000
 1316 2.760 2.392  3.128 1.000 1.00000 2.760 1.000      9.740  23.000
 1317 2.850 2.473  3.227 1.000 1.00000 2.850 1.000     49.531  23.000
 1318 2.740 2.373  3.107 1.000 1.00000 2.740 1.000      1.677  23.000
 1319 2.800 2.428  3.172 1.000 1.00000 2.800 1.000     20.972  23.000
 1320 2.780 2.410  3.150 1.000 1.00000 2.780 1.000     16.131  23.000
 1321 2.760 2.392  3.128 1.000 1.00000 2.760 1.000     30.923  23.000
 1322 2.780 2.410  3.150 1.000 1.00000 2.780 1.000     33.230  23.000
 1323 2.790 2.419  3.161 1.000 1.00000 2.790 1.000      8.181  23.000
 1324 2.760 2.392  3.128 1.000 1.00000 2.760 1.000      5.062  23.000
 1325 2.780 2.410  3.150 1.000 1.00000 2.780 1.000     19.067  23.000
 1326 2.790 2.419  3.161 1.000 1.00000 2.790 1.000     20.077  23.000
 1327 2.760 2.392  3.128 1.000 1.00000 2.760 1.000      4.289  23.000
 1328 2.780 2.410  3.150 1.000 1.00000 2.780 1.000     31.345  23.000
 1329 2.760 2.392  3.128 1.000 1.00000 2.760 1.000     11.691  23.000
 1330 2.750 2.383  3.117 1.000 1.00000 2.750 1.000     13.607  23.000
 1331 2.810 2.437  3.183 1.000 1.00000 2.810 1.000     32.351  23.000
 1332 2.780 2.410  3.150 1.000 1.00000 2.780 1.000     31.610  23.000
 1333 2.750 2.383  3.117 1.000 1.00000 2.750 1.000      7.991  23.000
 1334 2.750 2.383  3.117 1.000 1.00000 2.750 1.000     22.496  23.000
 1335 2.760 2.392  3.128 1.000 1.00000 2.760 1.000     17.577  23.000
 1336 2.780 2.410  3.150 1.000 1.00000 2.780 1.000     18.637  23.000
 1337 2.750 2.383  3.117 1.000 1.00000 2.750 1.000      5.320  23.000
 1338 2.770 2.401  3.139 1.000 1.00000 2.770 1.000     25.322  23.000
 1339 2.760 2.392  3.128 1.000 1.00000 2.760 1.000     13.382  23.000
 1340 2.760 2.392  3.128 1.000 1.00000 2.760 1.000     16.160  23.000
 1341 2.770 2.401  3.139 1.000 1.00000 2.770 1.000     23.034  23.000
 1342 2.780 2.410  3.150 1.000 1.00000 2.780 1.000     34.815  23.000
 1343 2.760 2.392  3.128 1.000 1.00000 2.760 1.000      9.833  23.000
 1344 2.820 2.446  3.194 1.000 1.00000 2.820 1.000     44.206  23.000
 1345 2.780 2.410  3.150 1.000 1.00000 2.780 1.000     35.181  23.000
 1346 2.760 2.392  3.128 1.000 1.00000 2.760 1.000     21.599  23.000
 1347 2.760 2.392  3.128 1.000 1.00000 2.760 1.000      4.912  23.000
 1348 2.790 2.419  3.161 1.000 1.00000 2.790 1.000     33.861  23.000
 1349 2.790 2.419  3.161 1.000 1.00000 2.790 1.000     18.976  23.000
 1350 2.750 2.383  3.117 1.000 1.00000 2.750 1.000      5.462  23.000
 1351 2.760 2.392  3.128 1.000 1.00000 2.760 1.000     15.914  23.000
 1352 2.750 2.383  3.117 1.000 1.00000 2.750 1.000     10.084  23.000
 1353 2.740 2.373  3.107 1.000 1.00000 2.740 1.000      8.198  23.000
 1354 2.750 2.383  3.117 1.000 1.00000 2.750 1.000      5.415  23.000
 1355 2.800 2.428  3.172 1.000 1.00000 2.800 1.000     41.325  23.000
 1356 2.790 2.419  3.161 1.000 1.00000 2.790 1.000     12.683  23.000
 1357 2.750 2.383  3.117 1.000 1.00000 2.750 1.000      8.297  23.000
 1358 2.760 2.392  3.128 1.000 1.00000 2.760 1.000      9.509  23.000
 1359 2.780 2.410  3.150 1.000 1.00000 2.780 1.000     13.735  23.000
 1360 2.740 2.373  3.107 1.000 1.00000 2.740 1.000      1.536  23.000
 1361 2.780 2.410  3.150 1.000 1.00000 2.780 1.000     10.741  23.000
 1362 2.750 2.383  3.117 1.000 1.00000 2.750 1.000     11.659  23.000
 1363 2.780 2.410  3.150 1.000 1.00000 2.780 1.000     10.068  23.000
 1364 2.830 2.455  3.205 1.000 1.00000 2.830 1.000     34.152  23.000
 1365 2.810 2.437  3.183 1.000 1.00000 2.810 1.000     32.386  23.000
 1366 2.830 2.455  3.205 1.000 1.00000 2.830 1.000     45.106  23.000
 1367 2.760 2.392  3.128 1.000 1.00000 2.760 1.000     32.449  23.000
 1368 2.790 2.419  3.161 1.000 1.00000 2.790 1.000     27.329  23.000
 1369 2.750 2.383  3.117 1.000 1.00000 2.750 1.000     15.383  23.000
 1370 2.740 2.373  3.107 1.000 1.00000 2.740 1.000      1.730  23.000
 1371 2.790 2.419  3.161 1.000 1.00000 2.790 1.000     18.914  23.000
 1372 2.770 2.401  3.139 1.000 1.00000 2.770 1.000     28.241  23.000
 1373 2.770 2.401  3.139 1.000 1.00000 2.770 1.000     32.309  23.000
 1374 2.860 2.482  3.238 1.000 1.00000 2.860 1.000     59.962  23.000
 1375 2.750 2.383  3.117 1.000 1.00000 2.750 1.000      9.887  23.000
 1376 2.730 2.364  3.096 1.000 1.00000 2.730 1.000      2.708  23.000
 1377 2.720 2.355  3.085 1.000 1.00000 2.720 1.000      5.169  23.000
 1378 2.760 2.392  3.128 1.000 1.00000 2.760 1.000     12.680  23.000
 1379 2.800 2.428  3.172 1.000 1.00000 2.800 1.000     29.735  23.000
 1380 2.760 2.392  3.128 1.000 1.00000 2.760 1.000     13.698  23.000
 1381 2.760 2.392  3.128 1.000 1.00000 2.760 1.000     40.972  23.000
 1382 2.850 2.473  3.227 1.000 1.00000 2.850 1.000     69.616  23.000
 1383 2.750 2.383  3.117 1.000 1.00000 2.750 1.000      7.358  23.000
 1384 2.830 2.455  3.205 1.000 1.00000 2.830 1.000     46.858  23.000
 1385 2.760 2.392  3.128 1.000 1.00000 2.760 1.000      7.498  23.000
 1386 2.800 2.428  3.172 1.000 1.00000 2.800 1.000     24.885  23.000
 1387 2.770 2.401  3.139 1.000 1.00000 2.770 1.000     30.762  23.000
 1388 2.750 2.383  3.117 1.000 1.00000 2.750 1.000     19.709  23.000
 1389 2.760 2.392  3.128 1.000 1.00000 2.760 1.000     15.317  23.000
 1390 2.750 2.383  3.117 1.000 1.00000 2.750 1.000      8.242  23.000
 1391 2.770 2.401  3.139 1.000 1.00000 2.770 1.000     13.646  23.000
 1392 2.760 2.392  3.128 1.000 1.00000 2.760 1.000      9.317  23.000
 1393 2.750 2.383  3.117 1.000 1.00000 2.750 1.000     14.252  23.000
 1394 2.750 2.383  3.117 1.000 1.00000 2.750 1.000     19.214  23.000
 1395 2.760 2.392  3.128 1.000 1.00000 2.760 1.000      6.391  23.000
 1396 2.850 2.473  3.227 1.000 1.00000 2.850 1.000     34.350  23.000
 1397 2.750 2.383  3.117 1.000 1.00000 2.750 1.000      7.500  23.000
 1398 2.740 2.373  3.107 1.000 1.00000 2.740 1.000     12.660  23.000
 1399 2.760 2.392  3.128 1.000 1.00000 2.760 1.000     12.217  23.000
 1400 2.790 2.419  3.161 1.000 1.00000 2.790 1.000     33.513  23.000
 1401 2.760 2.392  3.128 1.000 1.00000 2.760 1.000     11.986  23.000
 1402 2.800 2.428  3.172 1.000 1.00000 2.800 1.000     29.985  23.000
 1403 2.800 2.428  3.172 1.000 1.00000 2.800 1.000     35.899  23.000
 1404 2.790 2.419  3.161 1.000 1.00000 2.790 1.000     19.751  23.000
 1405 2.830 2.455  3.205 1.000 1.00000 2.830 1.000     27.005  23.000
 1406 2.770 2.401  3.139 1.000 1.00000 2.770 1.000      9.862  23.000
 1407 2.750 2.383  3.117 1.000 1.00000 2.750 1.000      8.889  23.000
 1408 2.760 2.392  3.128 1.000 1.00000 2.760 1.000     13.511  23.000
 1409 2.750 2.383  3.117 1.000 1.00000 2.750 1.000      4.453  23.000
 1410 2.820 2.446  3.194 1.000 1.00000 2.820 1.000     31.400  23.000
 1411 2.780 2.410  3.150 1.000 1.00000 2.780 1.000     11.489  23.000
 1412 2.840 2.464  3.216 1.000 1.00000 2.840 1.000     51.820  23.000
 1413 2.780 2.410  3.150 1.000 1.00000 2.780 1.000     28.679  23.000
 1414 2.760 2.392  3.128 1.000 1.00000 2.760 1.000     18.910  23.000
 1415 2.760 2.392  3.128 1.000 1.00000 2.760 1.000     29.117  23.000
 1416 2.790 2.419  3.161 1.000 1.00000 2.790 1.000     15.899  23.000
 1417 2.750 2.383  3.117 1.000 1.00000 2.750 1.000      8.760  23.000
 1418 2.760 2.392  3.128 1.000 1.00000 2.760 1.000     13.477  23.000
 1419 2.760 2.392  3.128 1.000 1.00000 2.760 1.000     22.413  23.000
 1420 2.750 2.383  3.117 1.000 1.00000 2.750 1.000     11.538  23.000
 1421 2.750 2.383  3.117 1.000 1.00000 2.750 1.000     12.580  23.000
 1422 2.760 2.392  3.128 1.000 1.00000 2.760 1.000      8.391  23.000
 1423 2.790 2.419  3.161 1.000 1.00000 2.790 1.000     22.738  23.000
 1424 2.750 2.383  3.117 1.000 1.00000 2.750 1.000      2.996  23.000
 1425 2.750 2.383  3.117 1.000 1.00000 2.750 1.000     11.015  23.000
 1426 2.840 2.464  3.216 1.000 1.00000 2.840 1.000     34.479  23.000
 1427 2.750 2.383  3.117 1.000 1.00000 2.750 1.000     13.547  23.000
 1428 2.770 2.401  3.139 1.000 1.00000 2.770 1.000     16.980  23.000
 1429 2.760 2.392  3.128 1.000 1.00000 2.760 1.000     13.719  23.000
 1430 2.850 2.473  3.227 1.000 1.00000 2.850 1.000     33.576  23.000
 1431 2.760 2.392  3.128 1.000 1.00000 2.760 1.000     15.906  23.000
 1432 2.850 2.473  3.227 1.000 1.00000 2.850 1.000     88.532  23.000
 1433 2.780 2.410  3.150 1.000 1.00000 2.780 1.000      5.464  23.000
 1434 2.780 2.410  3.150 1.000 1.00000 2.780 1.000     14.914  23.000
 1435 2.760 2.392  3.128 1.000 1.00000 2.760 1.000     22.979  23.000
 1436 2.750 2.383  3.117 1.000 1.00000 2.750 1.000     17.502  23.000
 1437 2.780 2.410  3.150 1.000 1.00000 2.780 1.000     23.833  23.000
 1438 2.760 2.392  3.128 1.000 1.00000 2.760 1.000      8.119  23.000
 1439 2.780 2.410  3.150 1.000 1.00000 2.780 1.000      5.559  23.000
 1440 2.840 2.464  3.216 1.000 1.00000 2.840 1.000     44.505  23.000
 1441 2.780 2.410  3.150 1.000 1.00000 2.780 1.000     24.756  23.000
 1442 2.750 2.383  3.117 1.000 1.00000 2.750 1.000      9.365  23.000
 1443 2.820 2.446  3.194 1.000 1.00000 2.820 1.000     17.049  23.000
 1444 2.800 2.428  3.172 1.000 1.00000 2.800 1.000     54.236  23.000
 1445 2.780 2.410  3.150 1.000 1.00000 2.780 1.000     20.015  23.000
 1446 2.720 2.355  3.085 1.000 1.00000 2.720 1.000      0.679  23.000
 1447 2.770 2.401  3.139 1.000 1.00000 2.770 1.000     46.777  23.000
 1448 2.760 2.392  3.128 1.000 1.00000 2.760 1.000     27.715  23.000
 1449 2.750 2.383  3.117 1.000 1.00000 2.750 1.000      5.903  23.000
 1450 2.760 2.392  3.128 1.000 1.00000 2.760 1.000     12.619  23.000
 1451 2.780 2.410  3.150 1.000 1.00000 2.780 1.000     14.071  23.000
 1452 2.790 2.419  3.161 1.000 1.00000 2.790 1.000     25.585  23.000
 1453 2.750 2.383  3.117 1.000 1.00000 2.750 1.000     17.690  23.000
 1454 2.780 2.410  3.150 1.000 1.00000 2.780 1.000     20.165  23.000
 1455 2.790 2.419  3.161 1.000 1.00000 2.790 1.000     37.083  23.000
 1456 2.780 2.410  3.150 1.000 1.00000 2.780 1.000      7.016  23.000
 1457 2.790 2.419  3.161 1.000 1.00000 2.790 1.000     29.600  23.000
 1458 2.790 2.419  3.161 1.000 1.00000 2.790 1.000     31.721  23.000
 1459 2.770 2.401  3.139 1.000 1.00000 2.770 1.000     21.268  23.000
 1460 2.760 2.392  3.128 1.000 1.00000 2.760 1.000      5.253  23.000
 1461 2.770 2.401  3.139 1.000 1.00000 2.770 1.000     14.109  23.000
 1462 2.760 2.392  3.128 1.000 1.00000 2.760 1.000      8.092  23.000
 1463 2.760 2.392  3.128 1.000 1.00000 2.760 1.000     15.420  23.000
 1464 2.760 2.392  3.128 1.000 1.00000 2.760 1.000      5.973  23.000
 1465 2.760 2.392  3.128 1.000 1.00000 2.760 1.000     10.955  23.000
 1466 2.780 2.410  3.150 1.000 1.00000 2.780 1.000     32.924  23.000
 1467 2.790 2.419  3.161 1.000 1.00000 2.790 1.000     23.568  23.000
 1468 2.800 2.428  3.172 1.000 1.00000 2.800 1.000     35.930  23.000
 1469 2.770 2.401  3.139 1.000 1.00000 2.770 1.000     30.355  23.000
 1470 2.800 2.428  3.172 1.000 1.00000 2.800 1.000     26.006  23.000
 1471 2.770 2.401  3.139 1.000 1.00000 2.770 1.000      9.963  23.000
 1472 2.810 2.437  3.183 1.000 1.00000 2.810 1.000     52.654  23.000
 1473 2.750 2.383  3.117 1.000 1.00000 2.750 1.000      4.538  23.000
 1474 2.820 2.446  3.194 1.000 1.00000 2.820 1.000     37.073  23.000
 1475 2.760 2.392  3.128 1.000 1.00000 2.760 1.000     30.160  23.000
 1476 2.750 2.383  3.117 1.000 1.00000 2.750 1.000      8.468  23.000
 1477 2.760 2.392  3.128 1.000 1.00000 2.760 1.000     23.069  23.000
 1478 2.790 2.419  3.161 1.000 1.00000 2.790 1.000     31.056  23.000
 1479 2.730 2.364  3.096 1.000 1.00000 2.730 1.000      5.399  23.000
 1480 2.760 2.392  3.128 1.000 1.00000 2.760 1.000     10.735  23.000
 1481 2.820 2.446  3.194 1.000 1.00000 2.820 1.000     29.570  23.000
 1482 2.760 2.392  3.128 1.000 1.00000 2.760 1.000      8.720  23.000
 1483 2.760 2.392  3.128 1.000 1.00000 2.760 1.000     23.434  23.000
 1484 2.760 2.392  3.128 1.000 1.00000 2.760 1.000     20.459  23.000
 1485 2.760 2.392  3.128 1.000 1.00000 2.760 1.000     19.799  23.000
 1486 2.860 2.482  3.238 1.000 1.00000 2.860 1.000     98.617  23.000
 1487 2.730 2.364  3.096 1.000 1.00000 2.730 1.000      3.114  23.000
 1488 2.830 2.455  3.205 1.000 1.00000 2.830 1.000     28.860  23.000
 1489 2.850 2.473  3.227 1.000 1.00000 2.850 1.000     82.534  23.000
 1490 2.760 2.392  3.128 1.000 1.00000 2.760 1.000     13.140  23.000
 1491 2.750 2.383  3.117 1.000 1.00000 2.750 1.000     15.127  23.000
 1492 2.770 2.401  3.139 1.000 1.00000 2.770 1.000     32.074  23.000
 1493 2.760 2.392  3.128 1.000 1.00000 2.760 1.000     10.124  23.000
 1494 2.760 2.392  3.128 1.000 1.00000 2.760 1.000      9.173  23.000
 1495 2.750 2.383  3.117 1.000 1.00000 2.750 1.000      8.479  23.000
 1496 2.750 2.383  3.117 1.000 1.00000 2.750 1.000     10.580  23.000
 1497 2.790 2.419  3.161 1.000 1.00000 2.790 1.000     17.711  23.000
 1498 2.850 2.473  3.227 1.000 1.00000 2.850 1.000     49.594  23.000
 1499 2.760 2.392  3.128 1.000 1.00000 2.760 1.000     20.178  23.000
 1500 2.830 2.455  3.205 1.000 1.00000 2.830 1.000     48.822  23.000
 1501 2.780 2.410  3.150 1.000 1.00000 2.780 1.000     12.082  23.000
 1502 2.760 2.392  3.128 1.000 1.00000 2.760 1.000     25.683  23.000
 1503 2.760 2.392  3.128 1.000 1.00000 2.760 1.000     16.780  23.000
 1504 2.750 2.383  3.117 1.000 1.00000 2.750 1.000     13.818  23.000
 1505 2.760 2.392  3.128 1.000 1.00000 2.760 1.000     22.736  23.000
 1506 2.760 2.392  3.128 1.000 1.00000 2.760 1.000     17.145  23.000
 1507 2.790 2.419  3.161 1.000 1.00000 2.790 1.000     25.992  23.000
 1508 2.750 2.383  3.117 1.000 1.00000 2.750 1.000      8.516  23.000
 1509 2.760 2.392  3.128 1.000 1.00000 2.760 1.000     15.661  23.000
 1510 2.750 2.383  3.117 1.000 1.00000 2.750 1.000     12.176  23.000
 1511 2.760 2.392  3.128 1.000 1.00000 2.760 1.000      7.267  23.000
 1512 2.840 2.464  3.216 1.000 1.00000 2.840 1.000     57.887  23.000
 1513 2.780 2.410  3.150 1.000 1.00000 2.780 1.000     21.142  23.000
 1514 2.800 2.428  3.172 1.000 1.00000 2.800 1.000     29.376  23.000
 1515 2.760 2.392  3.128 1.000 1.00000 2.760 1.000     15.033  23.000
 1516 2.760 2.392  3.128 1.000 1.00000 2.760 1.000      5.841  23.000
 1517 2.790 2.419  3.161 1.000 1.00000 2.790 1.000     50.223  23.000
 1518 2.790 2.419  3.161 1.000 1.00000 2.790 1.000     32.365  23.000
 1519 2.750 2.383  3.117 1.000 1.00000 2.750 1.000     22.011  23.000
 1520 2.760 2.392  3.128 1.000 1.00000 2.760 1.000      9.754  23.000
 1521 2.760 2.392  3.128 1.000 1.00000 2.760 1.000     24.773  23.000
 1522 2.800 2.428  3.172 1.000 1.00000 2.800 1.000     53.399  23.000
 1523 2.740 2.373  3.107 1.000 1.00000 2.740 1.000     12.272  23.000
 1524 2.750 2.383  3.117 1.000 1.00000 2.750 1.000     20.190  23.000
 1525 2.880 2.500  3.260 1.000 1.00000 2.880 1.000    113.129  23.000
 1526 2.760 2.392  3.128 1.000 1.00000 2.760 1.000     12.741  23.000
 1527 2.810 2.437  3.183 1.000 1.00000 2.810 1.000     22.944  23.000
 1528 2.780 2.410  3.150 1.000 1.00000 2.780 1.000     11.371  23.000
 1529 2.760 2.392  3.128 1.000 1.00000 2.760 1.000     25.852  23.000
 1530 2.880 2.500  3.260 1.000 1.00000 2.880 1.000     89.466  23.000
 1531 2.750 2.383  3.117 1.000 1.00000 2.750 1.000      2.652  23.000
 1532 2.770 2.401  3.139 1.000 1.00000 2.770 1.000     17.815  23.000
 1533 2.760 2.392  3.128 1.000 1.00000 2.760 1.000      7.385  23.000
 1534 2.790 2.419  3.161 1.000 1.00000 2.790 1.000     34.743  23.000
 1535 2.770 2.401  3.139 1.000 1.00000 2.770 1.000     32.391  23.000
 1536 2.790 2.419  3.161 1.000 1.00000 2.790 1.000     37.606  23.000
 1537 2.800 2.428  3.172 1.000 1.00000 2.800 1.000     35.612  23.000
 1538 2.760 2.392  3.128 1.000 1.00000 2.760 1.000     10.987  23.000
 1539 2.750 2.383  3.117 1.000 1.00000 2.750 1.000      4.878  23.000
 1540 2.760 2.392  3.128 1.000 1.00000 2.760 1.000      5.418  23.000
 1541 2.850 2.473  3.227 1.000 1.00000 2.850 1.000     38.631  23.000
 1542 2.850 2.473  3.227 1.000 1.00000 2.850 1.000     86.557  23.000
 1543 2.760 2.392  3.128 1.000 1.00000 2.760 1.000     17.079  23.000
 1544 2.850 2.473  3.227 1.000 1.00000 2.850 1.000     48.472  23.000
 1545 2.750 2.383  3.117 1.000 1.00000 2.750 1.000      3.492  23.000
 1546 2.770 2.401  3.139 1.000 1.00000 2.770 1.000      9.138  23.000
 1547 2.760 2.392  3.128 1.000 1.00000 2.760 1.000     11.484  23.000
 1548 2.760 2.392  3.128 1.000 1.00000 2.760 1.000     19.758  23.000
 1549 2.780 2.410  3.150 1.000 1.00000 2.780 1.000     28.576  23.000
 1550 2.750 2.383  3.117 1.000 1.00000 2.750 1.000      7.488  23.000
 1551 2.840 2.464  3.216 1.000 1.00000 2.840 1.000     37.567  23.000
 1552 2.780 2.410  3.150 1.000 1.00000 2.780 1.000     27.671  23.000
 1553 2.840 2.464  3.216 1.000 1.00000 2.840 1.000     45.784  23.000
 1554 2.740 2.373  3.107 1.000 1.00000 2.740 1.000      8.243  23.000
 1555 2.830 2.455  3.205 1.000 1.00000 2.830 1.000     23.564  23.000
 1556 2.750 2.383  3.117 1.000 1.00000 2.750 1.000     13.278  23.000
 1557 2.760 2.392  3.128 1.000 1.00000 2.760 1.000     13.977  23.000
 1558 2.750 2.383  3.117 1.000 1.00000 2.750 1.000     17.057  23.000
 1559 2.740 2.373  3.107 1.000 1.00000 2.740 1.000      2.269  23.000
 1560 2.750 2.383  3.117 1.000 1.00000 2.750 1.000      7.982  23.000
 1561 2.760 2.392  3.128 1.000 1.00000 2.760 1.000      4.901  23.000
 1562 2.790 2.419  3.161 1.000 1.00000 2.790 1.000     18.170  23.000
 1563 2.750 2.383  3.117 1.000 1.00000 2.750 1.000      9.016  23.000
 1564 2.840 2.464  3.216 1.000 1.00000 2.840 1.000     30.134  23.000
 1565 2.760 2.392  3.128 1.000 1.00000 2.760 1.000      8.767  23.000
 1566 2.760 2.392  3.128 1.000 1.00000 2.760 1.000     26.838  23.000
 1567 2.750 2.383  3.117 1.000 1.00000 2.750 1.000      4.760  23.000
 1568 2.830 2.455  3.205 1.000 1.00000 2.830 1.000     29.183  23.000
 1569 2.750 2.383  3.117 1.000 1.00000 2.750 1.000      7.089  23.000
 1570 2.760 2.392  3.128 1.000 1.00000 2.760 1.000      3.967  23.000
 1571 2.760 2.392  3.128 1.000 1.00000 2.760 1.000     13.698  23.000
 1572 2.850 2.473  3.227 1.000 1.00000 2.850 1.000     51.022  23.000
 1573 2.790 2.419  3.161 1.000 1.00000 2.790 1.000     12.140  23.000
 1574 2.790 2.419  3.161 1.000 1.00000 2.790 1.000     43.421  23.000
 1575 2.750 2.383  3.117 1.000 1.00000 2.750 1.000      2.714  23.000
 1576 2.770 2.401  3.139 1.000 1.00000 2.770 1.000     23.617  23.000
 1577 2.730 2.364  3.096 1.000 1.00000 2.730 1.000      0.992  23.000
 1578 2.760 2.392  3.128 1.000 1.00000 2.760 1.000     18.198  23.000
 1579 2.790 2.419  3.161 1.000 1.00000 2.790 1.000     10.538  23.000
 1580 2.770 2.401  3.139 1.000 1.00000 2.770 1.000     15.428  23.000
 1581 2.840 2.464  3.216 1.000 1.00000 2.840 1.000     55.567  23.000
 1582 2.790 2.419  3.161 1.000 1.00000 2.790 1.000     37.218  23.000
 1583 2.760 2.392  3.128 1.000 1.00000 2.760 1.000     12.904  23.000
 1584 2.790 2.419  3.161 1.000 1.00000 2.790 1.000     21.489  23.000
 1585 2.750 2.383  3.117 1.000 1.00000 2.750 1.000     13.068  23.000
 1586 2.710 2.346  3.074 1.000 1.00000 2.710 1.000      0.542  23.000
 1587 2.750 2.383  3.117 1.000 1.00000 2.750 1.000      6.718  23.000
 1588 2.780 2.410  3.150 1.000 1.00000 2.780 1.000     34.216  23.000
 1589 2.750 2.383  3.117 1.000 1.00000 2.750 1.000      8.371  23.000
 1590 2.750 2.383  3.117 1.000 1.00000 2.750 1.000      7.521  23.000
 1591 2.780 2.410  3.150 1.000 1.00000 2.780 1.000     30.536  23.000
 1592 2.740 2.373  3.107 1.000 1.00000 2.740 1.000      6.206  23.000
 1593 2.790 2.419  3.161 1.000 1.00000 2.790 1.000     14.325  23.000
 1594 2.760 2.392  3.128 1.000 1.00000 2.760 1.000     12.928  23.000
 1595 2.750 2.383  3.117 1.000 1.00000 2.750 1.000     11.365  23.000
 1596 2.750 2.383  3.117 1.000 1.00000 2.750 1.000     14.207  23.000
 1597 2.770 2.401  3.139 1.000 1.00000 2.770 1.000      9.237  23.000
 1598 2.750 2.383  3.117 1.000 1.00000 2.750 1.000     12.670  23.000
 1599 2.780 2.410  3.150 1.000 1.00000 2.780 1.000     51.196  23.000
 1600 2.770 2.401  3.139 1.000 1.00000 2.770 1.000     31.712  23.000
 1601 2.760 2.392  3.128 1.000 1.00000 2.760 1.000     12.322  23.000
 1602 2.730 2.364  3.096 1.000 1.00000 2.730 1.000      7.551  23.000
 1603 2.750 2.383  3.117 1.000 1.00000 2.750 1.000     28.735  23.000
 1604 2.780 2.410  3.150 1.000 1.00000 2.780 1.000     13.449  23.000
 1605 2.750 2.383  3.117 1.000 1.00000 2.750 1.000     26.161  23.000
 1606 2.850 2.473  3.227 1.000 1.00000 2.850 1.000     37.495  23.000
 1607 2.760 2.392  3.128 1.000 1.00000 2.760 1.000     32.221  23.000
 1608 2.750 2.383  3.117 1.000 1.00000 2.750 1.000      3.106  23.000
 1609 2.750 2.383  3.117 1.000 1.00000 2.750 1.000     13.756  23.000
 1610 2.800 2.428  3.172 1.000 1.00000 2.800 1.000     18.629  23.000
 1611 2.850 2.473  3.227 1.000 1.00000 2.850 1.000     50.290  23.000
 1612 2.750 2.383  3.117 1.000 1.00000 2.750 1.000     13.103  23.000
 1613 2.750 2.383  3.117 1.000 1.00000 2.750 1.000     10.321  23.000
 1614 2.760 2.392  3.128 1.000 1.00000 2.760 1.000     10.978  23.000
 1615 2.770 2.401  3.139 1.000 1.00000 2.770 1.000     13.578  23.000
 1616 2.760 2.392  3.128 1.000 1.00000 2.760 1.000     19.317  23.000
 1617 2.750 2.383  3.117 1.000 1.00000 2.750 1.000      6.489  23.000
 1618 2.760 2.392  3.128 1.000 1.00000 2.760 1.000      5.946  23.000
 1619 2.840 2.464  3.216 1.000 1.00000 2.840 1.000     40.139  23.000
 1620 2.750 2.383  3.117 1.000 1.00000 2.750 1.000     13.673  23.000
 1621 2.790 2.419  3.161 1.000 1.00000 2.790 1.000     33.393  23.000
 1622 2.760 2.392  3.128 1.000 1.00000 2.760 1.000      8.706  23.000
 1623 2.760 2.392  3.128 1.000 1.00000 2.760 1.000     19.518  23.000
 1624 2.750 2.383  3.117 1.000 1.00000 2.750 1.000     20.096  23.000
 1625 2.760 2.392  3.128 1.000 1.00000 2.760 1.000     10.221  23.000
 1626 2.750 2.383  3.117 1.000 1.00000 2.750 1.000     12.288  23.000
 1627 2.750 2.383  3.117 1.000 1.00000 2.750 1.000      9.210  23.000
 1628 2.800 2.428  3.172 1.000 1.00000 2.800 1.000     22.409  23.000
 1629 2.760 2.392  3.128 1.000 1.00000 2.760 1.000     22.322  23.000
 1630 2.770 2.401  3.139 1.000 1.00000 2.770 1.000     26.805  23.000
 1631 2.770 2.401  3.139 1.000 1.00000 2.770 1.000     25.323  23.000
 1632 2.760 2.392  3.128 1.000 1.00000 2.760 1.000      7.497  23.000
 1633 2.760 2.392  3.128 1.000 1.00000 2.760 1.000      8.175  23.000
 1634 2.750 2.383  3.117 1.000 1.00000 2.750 1.000      6.795  23.000
 1635 2.740 2.373  3.107 1.000 1.00000 2.740 1.000     20.202  23.000
 1636 2.760 2.392  3.128 1.000 1.00000 2.760 1.000     24.116  23.000
 1637 2.790 2.419  3.161 1.000 1.00000 2.790 1.000     20.751  23.000
 1638 2.760 2.392  3.128 1.000 1.00000 2.760 1.000     10.059  23.000
 1639 2.760 2.392  3.128 1.000 1.00000 2.760 1.000     12.087  23.000
 1640 2.770 2.401  3.139 1.000 1.00000 2.770 1.000     16.087  23.000
 1641 2.760 2.392  3.128 1.000 1.00000 2.760 1.000     24.629  23.000
 1642 2.750 2.383  3.117 1.000 1.00000 2.750 1.000     11.192  23.000
 1643 2.780 2.410  3.150 1.000 1.00000 2.780 1.000      5.774  23.000
 1644 2.750 2.383  3.117 1.000 1.00000 2.750 1.000      4.027  23.000
 1645 2.760 2.392  3.128 1.000 1.00000 2.760 1.000     24.379  23.000
 1646 2.770 2.401  3.139 1.000 1.00000 2.770 1.000     10.290  23.000
 1647 2.760 2.392  3.128 1.000 1.00000 2.760 1.000     12.063  23.000
 1648 2.740 2.373  3.107 1.000 1.00000 2.740 1.000      9.040  23.000
 1649 2.820 2.446  3.194 1.000 1.00000 2.820 1.000     38.724  23.000
 1650 2.760 2.392  3.128 1.000 1.00000 2.760 1.000      5.195  23.000
 1651 2.830 2.455  3.205 1.000 1.00000 2.830 1.000     43.839  23.000
 1652 2.780 2.410  3.150 1.000 1.00000 2.780 1.000     32.871  23.000
 1653 2.780 2.410  3.150 1.000 1.00000 2.780 1.000     12.537  23.000
 1654 2.760 2.392  3.128 1.000 1.00000 2.760 1.000      5.527  23.000
 1655 2.760 2.392  3.128 1.000 1.00000 2.760 1.000     31.502  23.000
 1656 2.820 2.446  3.194 1.000 1.00000 2.820 1.000     36.739  23.000
 1657 2.750 2.383  3.117 1.000 1.00000 2.750 1.000      6.409  23.000
 1658 2.750 2.383  3.117 1.000 1.00000 2.750 1.000      3.639  23.000
 1659 2.770 2.401  3.139 1.000 1.00000 2.770 1.000     12.171  23.000
 1660 2.770 2.401  3.139 1.000 1.00000 2.770 1.000     20.268  23.000
 1661 2.770 2.401  3.139 1.000 1.00000 2.770 1.000     23.269  23.000
 1662 2.760 2.392  3.128 1.000 1.00000 2.760 1.000     23.701  23.000
 1663 2.770 2.401  3.139 1.000 1.00000 2.770 1.000     23.049  23.000
 1664 2.760 2.392  3.128 1.000 1.00000 2.760 1.000     20.084  23.000
 1665 2.810 2.437  3.183 1.000 1.00000 2.810 1.000     45.558  23.000
 1666 2.770 2.401  3.139 1.000 1.00000 2.770 1.000     28.136  23.000
 1667 2.760 2.392  3.128 1.000 1.00000 2.760 1.000     17.905  23.000
 1668 2.750 2.383  3.117 1.000 1.00000 2.750 1.000     10.703  23.000
 1669 2.760 2.392  3.128 1.000 1.00000 2.760 1.000      9.272  23.000
 1670 2.760 2.392  3.128 1.000 1.00000 2.760 1.000     11.188  23.000
 1671 2.850 2.473  3.227 1.000 1.00000 2.850 1.000    101.406  23.000
 1672 2.750 2.383  3.117 1.000 1.00000 2.750 1.000     11.870  23.000
 1673 2.810 2.437  3.183 1.000 1.00000 2.810 1.000     34.771  23.000
 1674 2.760 2.392  3.128 1.000 1.00000 2.760 1.000     19.339  23.000
 1675 2.760 2.392  3.128 1.000 1.00000 2.760 1.000     12.514  23.000
 1676 2.750 2.383  3.117 1.000 1.00000 2.750 1.000     11.446  23.000
 1677 2.820 2.446  3.194 1.000 1.00000 2.820 1.000     43.280  23.000
 1678 2.760 2.392  3.128 1.000 1.00000 2.760 1.000      9.658  23.000
 1679 2.710 2.346  3.074 1.000 1.00000 2.710 1.000      1.022  23.000
 1680 2.750 2.383  3.117 1.000 1.00000 2.750 1.000      7.124  23.000
 1681 2.730 2.364  3.096 1.000 1.00000 2.730 1.000      2.418  23.000
 1682 2.780 2.410  3.150 1.000 1.00000 2.780 1.000     30.538  23.000
 1683 2.760 2.392  3.128 1.000 1.00000 2.760 1.000     10.734  23.000
 1684 2.750 2.383  3.117 1.000 1.00000 2.750 1.000      5.787  23.000
 1685 2.750 2.383  3.117 1.000 1.00000 2.750 1.000      4.154  23.000
 1686 2.850 2.473  3.227 1.000 1.00000 2.850 1.000     53.021  23.000
 1687 2.770 2.401  3.139 1.000 1.00000 2.770 1.000     27.943  23.000
 1688 2.830 2.455  3.205 1.000 1.00000 2.830 1.000     20.491  23.000
 1689 2.750 2.383  3.117 1.000 1.00000 2.750 1.000     13.491  23.000
 1690 2.720 2.355  3.085 1.000 1.00000 2.720 1.000      0.527  23.000
 1691 2.790 2.419  3.161 1.000 1.00000 2.790 1.000     28.180  23.000
 1692 2.760 2.392  3.128 1.000 1.00000 2.760 1.000     40.322  23.000
 1693 2.850 2.473  3.227 1.000 1.00000 2.850 1.000     57.946  23.000
 1694 2.750 2.383  3.117 1.000 1.00000 2.750 1.000      5.000  23.000
 1695 2.700 2.337  3.063 1.000 1.00000 2.700 1.000      0.295  23.000
 1696 2.850 2.473  3.227 1.000 1.00000 2.850 1.000     44.108  23.000
 1697 2.780 2.410  3.150 1.000 1.00000 2.780 1.000      5.516  23.000
 1698 2.760 2.392  3.128 1.000 1.00000 2.760 1.000     18.552  23.000
 1699 2.770 2.401  3.139 1.000 1.00000 2.770 1.000     28.274  23.000
 1700 2.780 2.410  3.150 1.000 1.00000 2.780 1.000     18.350  23.000
 1701 2.800 2.428  3.172 1.000 1.00000 2.800 1.000     48.490  23.000
 1702 2.790 2.419  3.161 1.000 1.00000 2.790 1.000     30.717  23.000
 1703 2.750 2.383  3.117 1.000 1.00000 2.750 1.000      6.464  23.000
 1704 2.760 2.392  3.128 1.000 1.00000 2.760 1.000     17.015  23.000
 1705 2.820 2.446  3.194 1.000 1.00000 2.820 1.000     13.455  23.000
 1706 2.780 2.410  3.150 1.000 1.00000 2.780 1.000     33.720  23.000
 1707 2.760 2.392  3.128 1.000 1.00000 2.760 1.000      5.535  23.000
 1708 2.820 2.446  3.194 1.000 1.00000 2.820 1.000     29.811  23.000
 1709 2.750 2.383  3.117 1.000 1.00000 2.750 1.000     24.638  23.000
 1710 2.760 2.392  3.128 1.000 1.00000 2.760 1.000     19.144  23.000
 1711 2.780 2.410  3.150 1.000 1.00000 2.780 1.000     48.262  23.000
 1712 2.760 2.392  3.128 1.000 1.00000 2.760 1.000     15.636  23.000
 1713 2.760 2.392  3.128 1.000 1.00000 2.760 1.000      4.092  23.000
 1714 2.760 2.392  3.128 1.000 1.00000 2.760 1.000     14.924  23.000
 1715 2.760 2.392  3.128 1.000 1.00000 2.760 1.000     16.674  23.000
 1716 2.760 2.392  3.128 1.000 1.00000 2.760 1.000     21.289  23.000
 1717 2.770 2.401  3.139 1.000 1.00000 2.770 1.000     23.582  23.000
 1718 2.760 2.392  3.128 1.000 1.00000 2.760 1.000     14.138  23.000
 1719 2.750 2.383  3.117 1.000 1.00000 2.750 1.000      2.559  23.000
 1720 2.760 2.392  3.128 1.000 1.00000 2.760 1.000      8.396  23.000
 1721 2.780 2.410  3.150 1.000 1.00000 2.780 1.000     40.083  23.000
 1722 2.780 2.410  3.150 1.000 1.00000 2.780 1.000     23.790  23.000
 1723 2.820 2.446  3.194 1.000 1.00000 2.820 1.000     44.261  23.000
 1724 2.750 2.383  3.117 1.000 1.00000 2.750 1.000      4.177  23.000
 1725 2.760 2.392  3.128 1.000 1.00000 2.760 1.000     12.001  23.000
 1726 2.760 2.392  3.128 1.000 1.00000 2.760 1.000      8.353  23.000
 1727 2.830 2.455  3.205 1.000 1.00000 2.830 1.000     31.221  23.000
 1728 2.760 2.392  3.128 1.000 1.00000 2.760 1.000     11.850  23.000
 1729 2.760 2.392  3.128 1.000 1.00000 2.760 1.000      8.499  23.000
 1730 2.760 2.392  3.128 1.000 1.00000 2.760 1.000     20.974  23.000
 1731 2.790 2.419  3.161 1.000 1.00000 2.790 1.000     55.873  23.000
 1732 2.760 2.392  3.128 1.000 1.00000 2.760 1.000     17.388  23.000
 1733 2.750 2.383  3.117 1.000 1.00000 2.750 1.000     10.671  23.000
 1734 2.760 2.392  3.128 1.000 1.00000 2.760 1.000     29.434  23.000
 1735 2.750 2.383  3.117 1.000 1.00000 2.750 1.000      2.732  23.000
 1736 2.760 2.392  3.128 1.000 1.00000 2.760 1.000     14.341  23.000
 1737 2.780 2.410  3.150 1.000 1.00000 2.780 1.000     20.331  23.000
 1738 2.750 2.383  3.117 1.000 1.00000 2.750 1.000      8.922  23.000
 1739 2.750 2.383  3.117 1.000 1.00000 2.750 1.000     11.016  23.000
 1740 2.770 2.401  3.139 1.000 1.00000 2.770 1.000     19.397  23.000
 1741 2.800 2.428  3.172 1.000 1.00000 2.800 1.000     39.650  23.000
 1742 2.750 2.383  3.117 1.000 1.00000 2.750 1.000     12.068  23.000
 1743 2.750 2.383  3.117 1.000 1.00000 2.750 1.000     13.857  23.000
 1744 2.810 2.437  3.183 1.000 1.00000 2.810 1.000     26.597  23.000
 1745 2.850 2.473  3.227 1.000 1.00000 2.850 1.000     72.812  23.000
 1746 2.730 2.364  3.096 1.000 1.00000 2.730 1.000     10.098  23.000
 1747 2.760 2.392  3.128 1.000 1.00000 2.760 1.000     23.869  23.000
 1748 2.780 2.410  3.150 1.000 1.00000 2.780 1.000     25.146  23.000
 1749 2.760 2.392  3.128 1.000 1.00000 2.760 1.000     10.557  23.000
 1750 2.780 2.410  3.150 1.000 1.00000 2.780 1.000     38.728  23.000
 1751 2.760 2.392  3.128 1.000 1.00000 2.760 1.000     10.735  23.000
 1752 2.730 2.364  3.096 1.000 1.00000 2.730 1.000      1.085  23.000
 1753 2.840 2.464  3.216 1.000 1.00000 2.840 1.000     35.681  23.000
 1754 2.760 2.392  3.128 1.000 1.00000 2.760 1.000     17.211  23.000
 1755 2.730 2.364  3.096 1.000 1.00000 2.730 1.000      1.449  23.000
 1756 2.790 2.419  3.161 1.000 1.00000 2.790 1.000     11.267  23.000
 1757 2.760 2.392  3.128 1.000 1.00000 2.760 1.000      5.736  23.000
 1758 2.760 2.392  3.128 1.000 1.00000 2.760 1.000     33.654  23.000
 1759 2.760 2.392  3.128 1.000 1.00000 2.760 1.000     12.988  23.000
 1760 2.800 2.428  3.172 1.000 1.00000 2.800 1.000     26.690  23.000
 1761 2.770 2.401  3.139 1.000 1.00000 2.770 1.000     22.247  23.000
 1762 2.820 2.446  3.194 1.000 1.00000 2.820 1.000     29.944  23.000
 1763 2.850 2.473  3.227 1.000 1.00000 2.850 1.000     33.948  23.000
 1764 2.750 2.383  3.117 1.000 1.00000 2.750 1.000      8.654  23.000
 1765 2.860 2.482  3.238 1.000 1.00000 2.860 1.000     68.965  23.000
 1766 2.790 2.419  3.161 1.000 1.00000 2.790 1.000     12.058  23.000
 1767 2.780 2.410  3.150 1.000 1.00000 2.780 1.000     25.580  23.000
 1768 2.750 2.383  3.117 1.000 1.00000 2.750 1.000      4.153  23.000
 1769 2.750 2.383  3.117 1.000 1.00000 2.750 1.000     13.937  23.000
 1770 2.840 2.464  3.216 1.000 1.00000 2.840 1.000     62.653  23.000
 1771 2.760 2.392  3.128 1.000 1.00000 2.760 1.000      9.518  23.000
 1772 2.780 2.410  3.150 1.000 1.00000 2.780 1.000     32.927  23.000
 1773 2.760 2.392  3.128 1.000 1.00000 2.760 1.000      5.887  23.000
 1774 2.760 2.392  3.128 1.000 1.00000 2.760 1.000     15.415  23.000
 1775 2.750 2.383  3.117 1.000 1.00000 2.750 1.000      8.796  23.000
 1776 2.820 2.446  3.194 1.000 1.00000 2.820 1.000     29.476  23.000
 1777 2.790 2.419  3.161 1.000 1.00000 2.790 1.000     32.297  23.000
 1778 2.750 2.383  3.117 1.000 1.00000 2.750 1.000      7.583  23.000
 1779 2.830 2.455  3.205 1.000 1.00000 2.830 1.000     31.733  23.000
 1780 2.780 2.410  3.150 1.000 1.00000 2.780 1.000     10.182  23.000
 1781 2.790 2.419  3.161 1.000 1.00000 2.790 1.000     13.479  23.000
 1782 2.790 2.419  3.161 1.000 1.00000 2.790 1.000     24.673  23.000
 1783 2.780 2.410  3.150 1.000 1.00000 2.780 1.000     17.828  23.000
 1784 2.850 2.473  3.227 1.000 1.00000 2.850 1.000     72.743  23.000
 1785 2.750 2.383  3.117 1.000 1.00000 2.750 1.000     22.857  23.000
 1786 2.760 2.392  3.128 1.000 1.00000 2.760 1.000     23.122  23.000
 1787 2.780 2.410  3.150 1.000 1.00000 2.780 1.000     28.103  23.000
 1788 2.790 2.419  3.161 1.000 1.00000 2.790 1.000     31.461  23.000
 1789 2.760 2.392  3.128 1.000 1.00000 2.760 1.000     31.823  23.000
 1790 2.860 2.482  3.238 1.000 1.00000 2.860 1.000     75.614  23.000
 1791 2.750 2.383  3.117 1.000 1.00000 2.750 1.000      8.520  23.000
 1792 2.750 2.383  3.117 1.000 1.00000 2.750 1.000     14.621  23.000
 1793 2.760 2.392  3.128 1.000 1.00000 2.760 1.000      7.079  23.000
 1794 2.790 2.419  3.161 1.000 1.00000 2.790 1.000     18.161  23.000
 1795 2.750 2.383  3.117 1.000 1.00000 2.750 1.000      3.812  23.000
 1796 2.810 2.437  3.183 1.000 1.00000 2.810 1.000     21.696  23.000
 1797 2.760 2.392  3.128 1.000 1.00000 2.760 1.000     19.121  23.000
 1798 2.800 2.428  3.172 1.000 1.00000 2.800 1.000     31.491  23.000
 1799 2.770 2.401  3.139 1.000 1.00000 2.770 1.000     23.947  23.000
 1800 2.760 2.392  3.128 1.000 1.00000 2.760 1.000      3.376  23.000
 1801 2.770 2.401  3.139 1.000 1.00000 2.770 1.000      8.102  23.000
 1802 2.850 2.473  3.227 1.000 1.00000 2.850 1.000     48.227  23.000
 1803 2.750 2.383  3.117 1.000 1.00000 2.750 1.000     14.171  23.000
 1804 2.750 2.383  3.117 1.000 1.00000 2.750 1.000     21.620  23.000
 1805 2.760 2.392  3.128 1.000 1.00000 2.760 1.000     18.755  23.000
 1806 2.760 2.392  3.128 1.000 1.00000 2.760 1.000      5.286  23.000
 1807 2.790 2.419  3.161 1.000 1.00000 2.790 1.000     16.591  23.000
 1808 2.760 2.392  3.128 1.000 1.00000 2.760 1.000      4.338  23.000
 1809 2.760 2.392  3.128 1.000 1.00000 2.760 1.000     29.082  23.000
 1810 2.790 2.419  3.161 1.000 1.00000 2.790 1.000     19.503  23.000
 1811 2.760 2.392  3.128 1.000 1.00000 2.760 1.000      9.929  23.000
 1812 2.800 2.428  3.172 1.000 1.00000 2.800 1.000     36.818  23.000
 1813 2.750 2.383  3.117 1.000 1.00000 2.750 1.000     23.319  23.000
 1814 2.760 2.392  3.128 1.000 1.00000 2.760 1.000     15.577  23.000
 1815 2.760 2.392  3.128 1.000 1.00000 2.760 1.000     23.383  23.000
 1816 2.730 2.364  3.096 1.000 1.00000 2.730 1.000      1.343  23.000
 1817 2.760 2.392  3.128 1.000 1.00000 2.760 1.000     17.383  23.000
 1818 2.790 2.419  3.161 1.000 1.00000 2.790 1.000     18.730  23.000
 1819 2.760 2.392  3.128 1.000 1.00000 2.760 1.000     18.689  23.000
 1820 2.800 2.428  3.172 1.000 1.00000 2.800 1.000     32.339  23.000
 1821 2.760 2.392  3.128 1.000 1.00000 2.760 1.000     11.500  23.000
 1822 2.750 2.383  3.117 1.000 1.00000 2.750 1.000     10.410  23.000
 1823 2.750 2.383  3.117 1.000 1.00000 2.750 1.000      2.401  23.000
 1824 2.800 2.428  3.172 1.000 1.00000 2.800 1.000     43.050  23.000
 1825 2.790 2.419  3.161 1.000 1.00000 2.790 1.000     16.243  23.000
 1826 2.760 2.392  3.128 1.000 1.00000 2.760 1.000     23.549  23.000
 1827 2.820 2.446  3.194 1.000 1.00000 2.820 1.000     28.265  23.000
 1828 2.790 2.419  3.161 1.000 1.00000 2.790 1.000     18.700  23.000
 1829 2.740 2.373  3.107 1.000 1.00000 2.740 1.000      2.926  23.000
 1830 2.760 2.392  3.128 1.000 1.00000 2.760 1.000     16.718  23.000
 1831 2.780 2.410  3.150 1.000 1.00000 2.780 1.000     10.639  23.000
 1832 2.810 2.437  3.183 1.000 1.00000 2.810 1.000     36.528  23.000
 1833 2.780 2.410  3.150 1.000 1.00000 2.780 1.000     31.966  23.000
 1834 2.760 2.392  3.128 1.000 1.00000 2.760 1.000      8.615  23.000
 1835 2.760 2.392  3.128 1.000 1.00000 2.760 1.000     18.424  23.000
 1836 2.760 2.392  3.128 1.000 1.00000 2.760 1.000     13.062  23.000
 1837 2.750 2.383  3.117 1.000 1.00000 2.750 1.000      7.933  23.000
 1838 2.780 2.410  3.150 1.000 1.00000 2.780 1.000     11.026  23.000
 1839 2.840 2.464  3.216 1.000 1.00000 2.840 1.000     37.811  23.000
 1840 2.850 2.473  3.227 1.000 1.00000 2.850 1.000     28.970  23.000
 1841 2.890 2.509  3.271 1.000 1.00000 2.890 1.000    107.142  23.000
 1842 2.750 2.383  3.117 1.000 1.00000 2.750 1.000     10.229  23.000
 1843 2.730 2.364  3.096 1.000 1.00000 2.730 1.000      1.462  23.000
 1844 2.730 2.364  3.096 1.000 1.00000 2.730 1.000      2.185  23.000
 1845 2.770 2.401  3.139 1.000 1.00000 2.770 1.000     12.921  23.000
 1846 2.750 2.383  3.117 1.000 1.00000 2.750 1.000     15.825  23.000
 1847 2.750 2.383  3.117 1.000 1.00000 2.750 1.000      9.345  23.000
 1848 2.780 2.410  3.150 1.000 1.00000 2.780 1.000     10.694  23.000
 1849 2.800 2.428  3.172 1.000 1.00000 2.800 1.000     20.114  23.000
 1850 2.750 2.383  3.117 1.000 1.00000 2.750 1.000      3.114  23.000
 1851 2.730 2.364  3.096 1.000 1.00000 2.730 1.000      1.290  23.000
 1852 2.760 2.392  3.128 1.000 1.00000 2.760 1.000     17.843  23.000
 1853 2.760 2.392  3.128 1.000 1.00000 2.760 1.000     11.638  23.000
 1854 2.850 2.473  3.227 1.000 1.00000 2.850 1.000     44.889  23.000
 1855 2.790 2.419  3.161 1.000 1.00000 2.790 1.000     52.522  23.000
 1856 2.740 2.373  3.107 1.000 1.00000 2.740 1.000      1.492  23.000
 1857 2.800 2.428  3.172 1.000 1.00000 2.800 1.000     29.677  23.000
 1858 2.840 2.464  3.216 1.000 1.00000 2.840 1.000     42.736  23.000
 1859 2.800 2.428  3.172 1.000 1.00000 2.800 1.000     52.766  23.000
 1860 2.750 2.383  3.117 1.000 1.00000 2.750 1.000      4.903  23.000
 1861 2.760 2.392  3.128 1.000 1.00000 2.760 1.000     30.546  23.000
 1862 2.750 2.383  3.117 1.000 1.00000 2.750 1.000      9.737  23.000
 1863 2.730 2.364  3.096 1.000 1.00000 2.730 1.000      1.326  23.000
 1864 2.760 2.392  3.128 1.000 1.00000 2.760 1.000     12.059  23.000
 1865 2.760 2.392  3.128 1.000 1.00000 2.760 1.000     19.502  23.000
 1866 2.800 2.428  3.172 1.000 1.00000 2.800 1.000     18.782  23.000
 1867 2.750 2.383  3.117 1.000 1.00000 2.750 1.000      7.591  23.000
 1868 2.840 2.464  3.216 1.000 1.00000 2.840 1.000     67.149  23.000
 1869 2.780 2.410  3.150 1.000 1.00000 2.780 1.000     38.385  23.000
 1870 2.810 2.437  3.183 1.000 1.00000 2.810 1.000     11.103  23.000
 1871 2.760 2.392  3.128 1.000 1.00000 2.760 1.000      7.853  23.000
 1872 2.790 2.419  3.161 1.000 1.00000 2.790 1.000     23.400  23.000
 1873 2.750 2.383  3.117 1.000 1.00000 2.750 1.000      6.436  23.000
 1874 2.920 2.536  3.304 1.000 1.00000 2.920 1.000     68.285  23.000
 1875 2.780 2.410  3.150 1.000 1.00000 2.780 1.000     33.605  23.000
 1876 2.760 2.392  3.128 1.000 1.00000 2.760 1.000      6.962  23.000
 1877 2.770 2.401  3.139 1.000 1.00000 2.770 1.000     22.396  23.000
 1878 2.780 2.410  3.150 1.000 1.00000 2.780 1.000     19.333  23.000
 1879 2.760 2.392  3.128 1.000 1.00000 2.760 1.000      8.952  23.000
 1880 2.750 2.383  3.117 1.000 1.00000 2.750 1.000     13.534  23.000
 1881 2.750 2.383  3.117 1.000 1.00000 2.750 1.000      4.370  23.000
 1882 2.760 2.392  3.128 1.000 1.00000 2.760 1.000     12.699  23.000
 1883 2.760 2.392  3.128 1.000 1.00000 2.760 1.000     25.580  23.000
 1884 2.750 2.383  3.117 1.000 1.00000 2.750 1.000      2.835  23.000
 1885 2.740 2.373  3.107 1.000 1.00000 2.740 1.000      8.270  23.000
 1886 2.750 2.383  3.117 1.000 1.00000 2.750 1.000      5.791  23.000
 1887 2.750 2.383  3.117 1.000 1.00000 2.750 1.000      6.424  23.000
 1888 2.750 2.383  3.117 1.000 1.00000 2.750 1.000      8.293  23.000
 1889 2.800 2.428  3.172 1.000 1.00000 2.800 1.000     19.471  23.000
 1890 2.770 2.401  3.139 1.000 1.00000 2.770 1.000     20.176  23.000
 1891 2.750 2.383  3.117 1.000 1.00000 2.750 1.000      2.441  23.000
 1892 2.750 2.383  3.117 1.000 1.00000 2.750 1.000     13.861  23.000
 1893 2.820 2.446  3.194 1.000 1.00000 2.820 1.000     25.881  23.000
 1894 2.810 2.437  3.183 1.000 1.00000 2.810 1.000     25.959  23.000
 1895 2.750 2.383  3.117 1.000 1.00000 2.750 1.000     14.473  23.000
 1896 2.820 2.446  3.194 1.000 1.00000 2.820 1.000     29.641  23.000
 1897 2.770 2.401  3.139 1.000 1.00000 2.770 1.000     16.141  23.000
 1898 2.760 2.392  3.128 1.000 1.00000 2.760 1.000     14.289  23.000
 1899 2.760 2.392  3.128 1.000 1.00000 2.760 1.000     13.538  23.000
 1900 2.770 2.401  3.139 1.000 1.00000 2.770 1.000     11.532  23.000
