## File LOS/SB2_B2004a_3.0z_Mags_2000.bpz  Fri Aug 12 21:24:30 2016
##
##Parameters used to run BPZ:
##
##AB_DIR=/home/lidenscheng/bpz-1.99.3//AB/
##ADD_CONTINUOUS_PROB=None
##ADD_SPEC_PROB=None
##CHECK=LOS/SB2_B2004a_3.0z_Mags_2000.flux_comparison
##COLOR=no
##COLUMNS=losNoErrors.columns
##CONVOLVE_P=yes
##DELTA_M_0=0.0
##DZ=0.01
##EXCLUDE=none
##FC=None
##FILTER_DIR=/home/lidenscheng/MK_DirectSim/filters/
##GET_Z=yes
##INPUT=LOS/SB2_B2004a_3.0z_Mags_2000.txt
##INTERACTIVE=yes
##INTERP=0
##MADAU=no
##MAG=yes
##MEAN_IGM=yes
##MERGE_PEAKS=no
##MIN_MAGERR=0.001
##MIN_RMS=0.05
##NEW_AB=no
##NMAX=None
##NTYPES=None
##N_PEAKS=1
##ODDS=0.95
##ONLY_TYPE=no
##OUTPUT=LOS/SB2_B2004a_3.0z_Mags_2000.bpz
##PHOTO_ERRORS=no
##PLOTS=no
##PRIOR=none
##PROBS=no
##PROBS2=no
##PROBS_LITE=LOS/SB2_B2004a_3.0z_Mags_2000.probs
##P_MIN=0.01
##SED_DIR=/home/lidenscheng/MK_DirectSim/SEDs/
##SPECTRA=SB2.list
##VERBOSE=yes
##ZC=None
##ZMAX=10.0
##ZMIN=0.01
##ZP_OFFSETS=0.0
##Z_THR=0
##
##Column information
##
# 1 ID
# 2 Z_B
# 3 Z_B_MIN
# 4 Z_B_MAX
# 5 T_B
# 6 ODDS    
# 7 Z_ML
# 8 T_ML
# 9 CHI-SQUARED
# 10 M_0
##
    1 3.080 2.680  3.480 1.000 1.00000 3.080 1.000      4.417  23.000
    2 3.120 2.716  3.524 1.000 1.00000 3.120 1.000      7.214  23.000
    3 3.130 2.725  3.535 1.000 1.00000 3.130 1.000     24.200  23.000
    4 3.110 2.707  3.513 1.000 1.00000 3.110 1.000      7.196  23.000
    5 3.100 2.698  3.502 1.000 1.00000 3.100 1.000      4.767  23.000
    6 3.090 2.689  3.491 1.000 1.00000 3.090 1.000     13.490  23.000
    7 3.120 2.716  3.524 1.000 1.00000 3.120 1.000      8.379  23.000
    8 3.080 2.680  3.480 1.000 1.00000 3.080 1.000     10.396  23.000
    9 3.110 2.707  3.513 1.000 1.00000 3.110 1.000     42.459  23.000
   10 3.110 2.707  3.513 1.000 1.00000 3.110 1.000     14.603  23.000
   11 3.110 2.707  3.513 1.000 1.00000 3.110 1.000      9.238  23.000
   12 3.070 2.671  3.469 1.000 1.00000 3.070 1.000      3.413  23.000
   13 3.090 2.689  3.491 1.000 1.00000 3.090 1.000      7.645  23.000
   14 3.110 2.707  3.513 1.000 1.00000 3.110 1.000     11.905  23.000
   15 3.100 2.698  3.502 1.000 1.00000 3.100 1.000     16.606  23.000
   16 3.100 2.698  3.502 1.000 1.00000 3.100 1.000      5.204  23.000
   17 3.090 2.689  3.491 1.000 1.00000 3.090 1.000      4.177  23.000
   18 3.120 2.716  3.524 1.000 1.00000 3.120 1.000      9.175  23.000
   19 3.070 2.671  3.469 1.000 1.00000 3.070 1.000      6.894  23.000
   20 3.070 2.671  3.469 1.000 1.00000 3.070 1.000     14.407  23.000
   21 3.070 2.671  3.469 1.000 1.00000 3.070 1.000      2.829  23.000
   22 3.100 2.698  3.502 1.000 1.00000 3.100 1.000      8.298  23.000
   23 3.060 2.662  3.458 1.000 1.00000 3.060 1.000      4.816  23.000
   24 3.050 2.653  3.447 1.000 1.00000 3.050 1.000      2.183  23.000
   25 3.120 2.716  3.524 1.000 1.00000 3.120 1.000      9.387  23.000
   26 3.100 2.698  3.502 1.000 1.00000 3.100 1.000      6.604  23.000
   27 3.040 2.644  3.436 1.000 1.00000 3.040 1.000      6.716  23.000
   28 3.100 2.698  3.502 1.000 1.00000 3.100 1.000      5.226  23.000
   29 3.070 2.671  3.469 1.000 1.00000 3.070 1.000      5.003  23.000
   30 3.070 2.671  3.469 1.000 1.00000 3.070 1.000      6.208  23.000
   31 3.110 2.707  3.513 1.000 1.00000 3.110 1.000      9.665  23.000
   32 3.080 2.680  3.480 1.000 1.00000 3.080 1.000      4.134  23.000
   33 3.090 2.689  3.491 1.000 1.00000 3.090 1.000      5.015  23.000
   34 3.070 2.671  3.469 1.000 1.00000 3.070 1.000      2.618  23.000
   35 3.070 2.671  3.469 1.000 1.00000 3.070 1.000      3.303  23.000
   36 3.090 2.689  3.491 1.000 1.00000 3.090 1.000     32.987  23.000
   37 3.070 2.671  3.469 1.000 1.00000 3.070 1.000      3.844  23.000
   38 3.090 2.689  3.491 1.000 1.00000 3.090 1.000     17.994  23.000
   39 3.070 2.671  3.469 1.000 1.00000 3.070 1.000      4.033  23.000
   40 3.090 2.689  3.491 1.000 1.00000 3.090 1.000      8.065  23.000
   41 3.110 2.707  3.513 1.000 1.00000 3.110 1.000     14.134  23.000
   42 3.070 2.671  3.469 1.000 1.00000 3.070 1.000     26.273  23.000
   43 3.100 2.698  3.502 1.000 1.00000 3.100 1.000      4.894  23.000
   44 3.090 2.689  3.491 1.000 1.00000 3.090 1.000      7.128  23.000
   45 3.080 2.680  3.480 1.000 1.00000 3.080 1.000      9.529  23.000
   46 3.040 2.644  3.436 1.000 1.00000 3.040 1.000      2.313  23.000
   47 3.080 2.680  3.480 1.000 1.00000 3.080 1.000      2.654  23.000
   48 3.080 2.680  3.480 1.000 1.00000 3.080 1.000     16.098  23.000
   49 3.100 2.698  3.502 1.000 1.00000 3.100 1.000     15.604  23.000
   50 3.070 2.671  3.469 1.000 1.00000 3.070 1.000      5.076  23.000
   51 3.090 2.689  3.491 1.000 1.00000 3.090 1.000     12.939  23.000
   52 3.110 2.707  3.513 1.000 1.00000 3.110 1.000      5.297  23.000
   53 3.060 2.662  3.458 1.000 1.00000 3.060 1.000      2.247  23.000
   54 3.140 2.734  3.546 1.000 1.00000 3.140 1.000     26.774  23.000
   55 3.110 2.707  3.513 1.000 1.00000 3.110 1.000      6.459  23.000
   56 3.100 2.698  3.502 1.000 1.00000 3.100 1.000     16.326  23.000
   57 3.080 2.680  3.480 1.000 1.00000 3.080 1.000     10.067  23.000
   58 3.090 2.689  3.491 1.000 1.00000 3.090 1.000     24.326  23.000
   59 3.110 2.707  3.513 1.000 1.00000 3.110 1.000      5.815  23.000
   60 3.090 2.689  3.491 1.000 1.00000 3.090 1.000      7.614  23.000
   61 3.060 2.662  3.458 1.000 1.00000 3.060 1.000      2.525  23.000
   62 3.080 2.680  3.480 1.000 1.00000 3.080 1.000     11.856  23.000
   63 3.100 2.698  3.502 1.000 1.00000 3.100 1.000      4.700  23.000
   64 3.060 2.662  3.458 1.000 1.00000 3.060 1.000      8.253  23.000
   65 3.090 2.689  3.491 1.000 1.00000 3.090 1.000      5.212  23.000
   66 3.070 2.671  3.469 1.000 1.00000 3.070 1.000      3.262  23.000
   67 3.090 2.689  3.491 1.000 1.00000 3.090 1.000      4.591  23.000
   68 3.120 2.716  3.524 1.000 1.00000 3.120 1.000     14.335  23.000
   69 3.110 2.707  3.513 1.000 1.00000 3.110 1.000     26.490  23.000
   70 3.080 2.680  3.480 1.000 1.00000 3.080 1.000      2.496  23.000
   71 3.070 2.671  3.469 1.000 1.00000 3.070 1.000      4.986  23.000
   72 3.080 2.680  3.480 1.000 1.00000 3.080 1.000     16.914  23.000
   73 3.080 2.680  3.480 1.000 1.00000 3.080 1.000     19.646  23.000
   74 3.080 2.680  3.480 1.000 1.00000 3.080 1.000     15.942  23.000
   75 3.040 2.644  3.436 1.000 1.00000 3.040 1.000      1.995  23.000
   76 3.090 2.689  3.491 1.000 1.00000 3.090 1.000      3.260  23.000
   77 3.070 2.671  3.469 1.000 1.00000 3.070 1.000      4.182  23.000
   78 3.110 2.707  3.513 1.000 1.00000 3.110 1.000      8.815  23.000
   79 3.110 2.707  3.513 1.000 1.00000 3.110 1.000      8.357  23.000
   80 3.100 2.698  3.502 1.000 1.00000 3.100 1.000     12.287  23.000
   81 3.100 2.698  3.502 1.000 1.00000 3.100 1.000      8.253  23.000
   82 3.070 2.671  3.469 1.000 1.00000 3.070 1.000      2.058  23.000
   83 3.080 2.680  3.480 1.000 1.00000 3.080 1.000      3.151  23.000
   84 3.130 2.725  3.535 1.000 1.00000 3.130 1.000     11.290  23.000
   85 3.100 2.698  3.502 1.000 1.00000 3.100 1.000     34.427  23.000
   86 3.120 2.716  3.524 1.000 1.00000 3.120 1.000     17.222  23.000
   87 3.110 2.707  3.513 1.000 1.00000 3.110 1.000     24.041  23.000
   88 3.110 2.707  3.513 1.000 1.00000 3.110 1.000      5.564  23.000
   89 3.130 2.725  3.535 1.000 1.00000 3.130 1.000     12.002  23.000
   90 3.100 2.698  3.502 1.000 1.00000 3.100 1.000     17.279  23.000
   91 3.050 2.653  3.447 1.000 1.00000 3.050 1.000     21.651  23.000
   92 3.110 2.707  3.513 1.000 1.00000 3.110 1.000     10.327  23.000
   93 3.080 2.680  3.480 1.000 1.00000 3.080 1.000     12.199  23.000
   94 3.060 2.662  3.458 1.000 1.00000 3.060 1.000      2.598  23.000
   95 3.110 2.707  3.513 1.000 1.00000 3.110 1.000      8.515  23.000
   96 3.070 2.671  3.469 1.000 1.00000 3.070 1.000      4.959  23.000
   97 3.100 2.698  3.502 1.000 1.00000 3.100 1.000      7.427  23.000
   98 3.100 2.698  3.502 1.000 1.00000 3.100 1.000      4.242  23.000
   99 3.110 2.707  3.513 1.000 1.00000 3.110 1.000      5.545  23.000
  100 3.050 2.653  3.447 1.000 1.00000 3.050 1.000      8.001  23.000
  101 3.060 2.662  3.458 1.000 1.00000 3.060 1.000      2.737  23.000
  102 3.090 2.689  3.491 1.000 1.00000 3.090 1.000     41.591  23.000
  103 3.110 2.707  3.513 1.000 1.00000 3.110 1.000     14.718  23.000
  104 3.090 2.689  3.491 1.000 1.00000 3.090 1.000      5.975  23.000
  105 3.080 2.680  3.480 1.000 1.00000 3.080 1.000     17.467  23.000
  106 3.090 2.689  3.491 1.000 1.00000 3.090 1.000     27.020  23.000
  107 3.080 2.680  3.480 1.000 1.00000 3.080 1.000     12.053  23.000
  108 3.080 2.680  3.480 1.000 1.00000 3.080 1.000      3.298  23.000
  109 3.090 2.689  3.491 1.000 1.00000 3.090 1.000     10.413  23.000
  110 3.070 2.671  3.469 1.000 1.00000 3.070 1.000      4.022  23.000
  111 3.090 2.689  3.491 1.000 1.00000 3.090 1.000      3.338  23.000
  112 3.100 2.698  3.502 1.000 1.00000 3.100 1.000     27.837  23.000
  113 3.080 2.680  3.480 1.000 1.00000 3.080 1.000      6.399  23.000
  114 3.070 2.671  3.469 1.000 1.00000 3.070 1.000     26.140  23.000
  115 3.060 2.662  3.458 1.000 1.00000 3.060 1.000      9.644  23.000
  116 3.060 2.662  3.458 1.000 1.00000 3.060 1.000     18.240  23.000
  117 3.080 2.680  3.480 1.000 1.00000 3.080 1.000      3.340  23.000
  118 3.100 2.698  3.502 1.000 1.00000 3.100 1.000      8.793  23.000
  119 3.070 2.671  3.469 1.000 1.00000 3.070 1.000      5.525  23.000
  120 3.070 2.671  3.469 1.000 1.00000 3.070 1.000      6.295  23.000
  121 3.090 2.689  3.491 1.000 1.00000 3.090 1.000      6.453  23.000
  122 3.090 2.689  3.491 1.000 1.00000 3.090 1.000      3.354  23.000
  123 3.080 2.680  3.480 1.000 1.00000 3.080 1.000     18.603  23.000
  124 3.090 2.689  3.491 1.000 1.00000 3.090 1.000      8.082  23.000
  125 3.120 2.716  3.524 1.000 1.00000 3.120 1.000     12.579  23.000
  126 3.060 2.662  3.458 1.000 1.00000 3.060 1.000      3.723  23.000
  127 3.080 2.680  3.480 1.000 1.00000 3.080 1.000      4.533  23.000
  128 3.100 2.698  3.502 1.000 1.00000 3.100 1.000      6.923  23.000
  129 3.100 2.698  3.502 1.000 1.00000 3.100 1.000      7.631  23.000
  130 3.080 2.680  3.480 1.000 1.00000 3.080 1.000      8.485  23.000
  131 3.080 2.680  3.480 1.000 1.00000 3.080 1.000      7.021  23.000
  132 3.090 2.689  3.491 1.000 1.00000 3.090 1.000      6.839  23.000
  133 3.080 2.680  3.480 1.000 1.00000 3.080 1.000      9.306  23.000
  134 3.070 2.671  3.469 1.000 1.00000 3.070 1.000      5.467  23.000
  135 3.080 2.680  3.480 1.000 1.00000 3.080 1.000     14.535  23.000
  136 3.120 2.716  3.524 1.000 1.00000 3.120 1.000     10.990  23.000
  137 3.110 2.707  3.513 1.000 1.00000 3.110 1.000     15.723  23.000
  138 3.080 2.680  3.480 1.000 1.00000 3.080 1.000      6.874  23.000
  139 3.110 2.707  3.513 1.000 1.00000 3.110 1.000      6.238  23.000
  140 3.110 2.707  3.513 1.000 1.00000 3.110 1.000     38.248  23.000
  141 3.060 2.662  3.458 1.000 1.00000 3.060 1.000      6.806  23.000
  142 3.110 2.707  3.513 1.000 1.00000 3.110 1.000      6.166  23.000
  143 3.100 2.698  3.502 1.000 1.00000 3.100 1.000     11.943  23.000
  144 3.100 2.698  3.502 1.000 1.00000 3.100 1.000      5.819  23.000
  145 3.070 2.671  3.469 1.000 1.00000 3.070 1.000     17.943  23.000
  146 3.060 2.662  3.458 1.000 1.00000 3.060 1.000     15.880  23.000
  147 3.120 2.716  3.524 1.000 1.00000 3.120 1.000      7.058  23.000
  148 3.060 2.662  3.458 1.000 1.00000 3.060 1.000      4.286  23.000
  149 3.070 2.671  3.469 1.000 1.00000 3.070 1.000      2.023  23.000
  150 3.080 2.680  3.480 1.000 1.00000 3.080 1.000     11.575  23.000
  151 3.070 2.671  3.469 1.000 1.00000 3.070 1.000      2.598  23.000
  152 3.100 2.698  3.502 1.000 1.00000 3.100 1.000     18.459  23.000
  153 3.070 2.671  3.469 1.000 1.00000 3.070 1.000      1.799  23.000
  154 3.080 2.680  3.480 1.000 1.00000 3.080 1.000      8.033  23.000
  155 3.090 2.689  3.491 1.000 1.00000 3.090 1.000      5.589  23.000
  156 3.100 2.698  3.502 1.000 1.00000 3.100 1.000      8.119  23.000
  157 3.080 2.680  3.480 1.000 1.00000 3.080 1.000      5.327  23.000
  158 3.080 2.680  3.480 1.000 1.00000 3.080 1.000      6.858  23.000
  159 3.060 2.662  3.458 1.000 1.00000 3.060 1.000     30.923  23.000
  160 3.120 2.716  3.524 1.000 1.00000 3.120 1.000     10.595  23.000
  161 3.100 2.698  3.502 1.000 1.00000 3.100 1.000     10.199  23.000
  162 3.120 2.716  3.524 1.000 1.00000 3.120 1.000     19.383  23.000
  163 3.130 2.725  3.535 1.000 1.00000 3.130 1.000     13.907  23.000
  164 3.090 2.689  3.491 1.000 1.00000 3.090 1.000      5.946  23.000
  165 3.070 2.671  3.469 1.000 1.00000 3.070 1.000      3.361  23.000
  166 3.090 2.689  3.491 1.000 1.00000 3.090 1.000      3.728  23.000
  167 3.100 2.698  3.502 1.000 1.00000 3.100 1.000     18.579  23.000
  168 3.080 2.680  3.480 1.000 1.00000 3.080 1.000     25.388  23.000
  169 3.060 2.662  3.458 1.000 1.00000 3.060 1.000      4.992  23.000
  170 3.100 2.698  3.502 1.000 1.00000 3.100 1.000      3.960  23.000
  171 3.110 2.707  3.513 1.000 1.00000 3.110 1.000      7.788  23.000
  172 3.050 2.653  3.447 1.000 1.00000 3.050 1.000      1.052  23.000
  173 3.090 2.689  3.491 1.000 1.00000 3.090 1.000      3.370  23.000
  174 3.070 2.671  3.469 1.000 1.00000 3.070 1.000     31.552  23.000
  175 3.060 2.662  3.458 1.000 1.00000 3.060 1.000      6.135  23.000
  176 3.120 2.716  3.524 1.000 1.00000 3.120 1.000     10.326  23.000
  177 3.080 2.680  3.480 1.000 1.00000 3.080 1.000     17.740  23.000
  178 3.060 2.662  3.458 1.000 1.00000 3.060 1.000      4.226  23.000
  179 3.100 2.698  3.502 1.000 1.00000 3.100 1.000      6.680  23.000
  180 3.050 2.653  3.447 1.000 1.00000 3.050 1.000      4.135  23.000
  181 3.070 2.671  3.469 1.000 1.00000 3.070 1.000      6.439  23.000
  182 3.070 2.671  3.469 1.000 1.00000 3.070 1.000     14.786  23.000
  183 3.090 2.689  3.491 1.000 1.00000 3.090 1.000      5.800  23.000
  184 3.080 2.680  3.480 1.000 1.00000 3.080 1.000     19.294  23.000
  185 3.070 2.671  3.469 1.000 1.00000 3.070 1.000      2.298  23.000
  186 3.110 2.707  3.513 1.000 1.00000 3.110 1.000     10.004  23.000
  187 3.080 2.680  3.480 1.000 1.00000 3.080 1.000      4.731  23.000
  188 3.070 2.671  3.469 1.000 1.00000 3.070 1.000      7.716  23.000
  189 3.090 2.689  3.491 1.000 1.00000 3.090 1.000      8.852  23.000
  190 3.120 2.716  3.524 1.000 1.00000 3.120 1.000     19.108  23.000
  191 3.080 2.680  3.480 1.000 1.00000 3.080 1.000     15.115  23.000
  192 3.150 2.743  3.557 1.000 1.00000 3.150 1.000     17.038  23.000
  193 3.070 2.671  3.469 1.000 1.00000 3.070 1.000     18.789  23.000
  194 3.100 2.698  3.502 1.000 1.00000 3.100 1.000      7.978  23.000
  195 3.070 2.671  3.469 1.000 1.00000 3.070 1.000      2.124  23.000
  196 3.130 2.725  3.535 1.000 1.00000 3.130 1.000     24.950  23.000
  197 3.030 2.635  3.425 1.000 1.00000 3.030 1.000     21.785  23.000
  198 3.100 2.698  3.502 1.000 1.00000 3.100 1.000     39.797  23.000
  199 3.080 2.680  3.480 1.000 1.00000 3.080 1.000      8.072  23.000
  200 3.080 2.680  3.480 1.000 1.00000 3.080 1.000      2.250  23.000
  201 3.070 2.671  3.469 1.000 1.00000 3.070 1.000      2.161  23.000
  202 3.080 2.680  3.480 1.000 1.00000 3.080 1.000      9.779  23.000
  203 3.100 2.698  3.502 1.000 1.00000 3.100 1.000      4.713  23.000
  204 3.100 2.698  3.502 1.000 1.00000 3.100 1.000      5.718  23.000
  205 3.090 2.689  3.491 1.000 1.00000 3.090 1.000      8.542  23.000
  206 3.060 2.662  3.458 1.000 1.00000 3.060 1.000      2.362  23.000
  207 3.060 2.662  3.458 1.000 1.00000 3.060 1.000      4.774  23.000
  208 3.110 2.707  3.513 1.000 1.00000 3.110 1.000      6.792  23.000
  209 3.050 2.653  3.447 1.000 1.00000 3.050 1.000      8.395  23.000
  210 3.090 2.689  3.491 1.000 1.00000 3.090 1.000      5.881  23.000
  211 3.090 2.689  3.491 1.000 1.00000 3.090 1.000     23.680  23.000
  212 3.140 2.734  3.546 1.000 1.00000 3.140 1.000     15.410  23.000
  213 3.080 2.680  3.480 1.000 1.00000 3.080 1.000      4.698  23.000
  214 3.060 2.662  3.458 1.000 1.00000 3.060 1.000      6.973  23.000
  215 3.090 2.689  3.491 1.000 1.00000 3.090 1.000      2.850  23.000
  216 3.080 2.680  3.480 1.000 1.00000 3.080 1.000      5.464  23.000
  217 3.080 2.680  3.480 1.000 1.00000 3.080 1.000      4.391  23.000
  218 3.100 2.698  3.502 1.000 1.00000 3.100 1.000     19.885  23.000
  219 3.080 2.680  3.480 1.000 1.00000 3.080 1.000      3.224  23.000
  220 3.060 2.662  3.458 1.000 1.00000 3.060 1.000      1.627  23.000
  221 3.100 2.698  3.502 1.000 1.00000 3.100 1.000      3.860  23.000
  222 3.070 2.671  3.469 1.000 1.00000 3.070 1.000      2.805  23.000
  223 3.070 2.671  3.469 1.000 1.00000 3.070 1.000      2.456  23.000
  224 3.090 2.689  3.491 1.000 1.00000 3.090 1.000      3.213  23.000
  225 3.060 2.662  3.458 1.000 1.00000 3.060 1.000     14.050  23.000
  226 3.080 2.680  3.480 1.000 1.00000 3.080 1.000      6.302  23.000
  227 3.100 2.698  3.502 1.000 1.00000 3.100 1.000     15.929  23.000
  228 3.120 2.716  3.524 1.000 1.00000 3.120 1.000      8.284  23.000
  229 3.080 2.680  3.480 1.000 1.00000 3.080 1.000      2.404  23.000
  230 3.090 2.689  3.491 1.000 1.00000 3.090 1.000     12.833  23.000
  231 3.100 2.698  3.502 1.000 1.00000 3.100 1.000     31.855  23.000
  232 3.110 2.707  3.513 1.000 1.00000 3.110 1.000     31.134  23.000
  233 3.110 2.707  3.513 1.000 1.00000 3.110 1.000      9.071  23.000
  234 3.100 2.698  3.502 1.000 1.00000 3.100 1.000      4.183  23.000
  235 3.090 2.689  3.491 1.000 1.00000 3.090 1.000     13.190  23.000
  236 3.080 2.680  3.480 1.000 1.00000 3.080 1.000     13.573  23.000
  237 3.050 2.653  3.447 1.000 1.00000 3.050 1.000      1.178  23.000
  238 3.130 2.725  3.535 1.000 1.00000 3.130 1.000     16.787  23.000
  239 3.110 2.707  3.513 1.000 1.00000 3.110 1.000      6.958  23.000
  240 3.080 2.680  3.480 1.000 1.00000 3.080 1.000      4.260  23.000
  241 3.100 2.698  3.502 1.000 1.00000 3.100 1.000     18.142  23.000
  242 3.080 2.680  3.480 1.000 1.00000 3.080 1.000      2.115  23.000
  243 3.070 2.671  3.469 1.000 1.00000 3.070 1.000      2.469  23.000
  244 3.070 2.671  3.469 1.000 1.00000 3.070 1.000      2.298  23.000
  245 3.090 2.689  3.491 1.000 1.00000 3.090 1.000     13.676  23.000
  246 3.100 2.698  3.502 1.000 1.00000 3.100 1.000     34.930  23.000
  247 3.050 2.653  3.447 1.000 1.00000 3.050 1.000      1.585  23.000
  248 3.080 2.680  3.480 1.000 1.00000 3.080 1.000      2.264  23.000
  249 3.080 2.680  3.480 1.000 1.00000 3.080 1.000     13.355  23.000
  250 3.110 2.707  3.513 1.000 1.00000 3.110 1.000     17.328  23.000
  251 3.120 2.716  3.524 1.000 1.00000 3.120 1.000      8.870  23.000
  252 3.070 2.671  3.469 1.000 1.00000 3.070 1.000      4.081  23.000
  253 3.100 2.698  3.502 1.000 1.00000 3.100 1.000     10.721  23.000
  254 3.130 2.725  3.535 1.000 1.00000 3.130 1.000     19.458  23.000
  255 3.060 2.662  3.458 1.000 1.00000 3.060 1.000      6.356  23.000
  256 3.110 2.707  3.513 1.000 1.00000 3.110 1.000     21.496  23.000
  257 3.090 2.689  3.491 1.000 1.00000 3.090 1.000      8.039  23.000
  258 3.070 2.671  3.469 1.000 1.00000 3.070 1.000      8.612  23.000
  259 3.080 2.680  3.480 1.000 1.00000 3.080 1.000      5.557  23.000
  260 3.100 2.698  3.502 1.000 1.00000 3.100 1.000      7.414  23.000
  261 3.100 2.698  3.502 1.000 1.00000 3.100 1.000     18.680  23.000
  262 3.130 2.725  3.535 1.000 1.00000 3.130 1.000     32.886  23.000
  263 3.090 2.689  3.491 1.000 1.00000 3.090 1.000      7.110  23.000
  264 3.070 2.671  3.469 1.000 1.00000 3.070 1.000      4.887  23.000
  265 3.080 2.680  3.480 1.000 1.00000 3.080 1.000      8.866  23.000
  266 3.090 2.689  3.491 1.000 1.00000 3.090 1.000      7.079  23.000
  267 3.090 2.689  3.491 1.000 1.00000 3.090 1.000      9.844  23.000
  268 3.030 2.635  3.425 1.000 1.00000 3.030 1.000      3.497  23.000
  269 3.070 2.671  3.469 1.000 1.00000 3.070 1.000      4.283  23.000
  270 3.070 2.671  3.469 1.000 1.00000 3.070 1.000     10.582  23.000
  271 3.070 2.671  3.469 1.000 1.00000 3.070 1.000     10.103  23.000
  272 3.100 2.698  3.502 1.000 1.00000 3.100 1.000     21.908  23.000
  273 3.100 2.698  3.502 1.000 1.00000 3.100 1.000      9.589  23.000
  274 3.080 2.680  3.480 1.000 1.00000 3.080 1.000     15.059  23.000
  275 3.080 2.680  3.480 1.000 1.00000 3.080 1.000      6.896  23.000
  276 3.070 2.671  3.469 1.000 1.00000 3.070 1.000      3.713  23.000
  277 3.080 2.680  3.480 1.000 1.00000 3.080 1.000     17.648  23.000
  278 3.090 2.689  3.491 1.000 1.00000 3.090 1.000      6.627  23.000
  279 3.050 2.653  3.447 1.000 1.00000 3.050 1.000      7.599  23.000
  280 3.100 2.698  3.502 1.000 1.00000 3.100 1.000     12.795  23.000
  281 3.090 2.689  3.491 1.000 1.00000 3.090 1.000      4.050  23.000
  282 3.080 2.680  3.480 1.000 1.00000 3.080 1.000      3.759  23.000
  283 3.060 2.662  3.458 1.000 1.00000 3.060 1.000      1.733  23.000
  284 3.100 2.698  3.502 1.000 1.00000 3.100 1.000      6.969  23.000
  285 3.090 2.689  3.491 1.000 1.00000 3.090 1.000      5.057  23.000
  286 3.050 2.653  3.447 1.000 1.00000 3.050 1.000      1.329  23.000
  287 3.090 2.689  3.491 1.000 1.00000 3.090 1.000      3.437  23.000
  288 3.070 2.671  3.469 1.000 1.00000 3.070 1.000     12.812  23.000
  289 3.080 2.680  3.480 1.000 1.00000 3.080 1.000      4.275  23.000
  290 3.090 2.689  3.491 1.000 1.00000 3.090 1.000     20.340  23.000
  291 3.060 2.662  3.458 1.000 1.00000 3.060 1.000      3.182  23.000
  292 3.080 2.680  3.480 1.000 1.00000 3.080 1.000     20.034  23.000
  293 3.060 2.662  3.458 1.000 1.00000 3.060 1.000      2.802  23.000
  294 3.070 2.671  3.469 1.000 1.00000 3.070 1.000     13.015  23.000
  295 3.090 2.689  3.491 1.000 1.00000 3.090 1.000      6.280  23.000
  296 3.120 2.716  3.524 1.000 1.00000 3.120 1.000      8.542  23.000
  297 3.150 2.743  3.557 1.000 1.00000 3.150 1.000     24.504  23.000
  298 3.120 2.716  3.524 1.000 1.00000 3.120 1.000      7.694  23.000
  299 3.080 2.680  3.480 1.000 1.00000 3.080 1.000     18.945  23.000
  300 3.070 2.671  3.469 1.000 1.00000 3.070 1.000      6.813  23.000
  301 3.100 2.698  3.502 1.000 1.00000 3.100 1.000      6.668  23.000
  302 3.100 2.698  3.502 1.000 1.00000 3.100 1.000      5.760  23.000
  303 3.050 2.653  3.447 1.000 1.00000 3.050 1.000      6.772  23.000
  304 3.080 2.680  3.480 1.000 1.00000 3.080 1.000      2.952  23.000
  305 3.100 2.698  3.502 1.000 1.00000 3.100 1.000      6.808  23.000
  306 3.100 2.698  3.502 1.000 1.00000 3.100 1.000     44.388  23.000
  307 3.110 2.707  3.513 1.000 1.00000 3.110 1.000     12.259  23.000
  308 3.070 2.671  3.469 1.000 1.00000 3.070 1.000      5.866  23.000
  309 3.070 2.671  3.469 1.000 1.00000 3.070 1.000      2.337  23.000
  310 3.110 2.707  3.513 1.000 1.00000 3.110 1.000     10.935  23.000
  311 3.110 2.707  3.513 1.000 1.00000 3.110 1.000     13.503  23.000
  312 3.070 2.671  3.469 1.000 1.00000 3.070 1.000      7.333  23.000
  313 3.090 2.689  3.491 1.000 1.00000 3.090 1.000     17.163  23.000
  314 3.080 2.680  3.480 1.000 1.00000 3.080 1.000      2.295  23.000
  315 3.110 2.707  3.513 1.000 1.00000 3.110 1.000     10.401  23.000
  316 3.070 2.671  3.469 1.000 1.00000 3.070 1.000     10.290  23.000
  317 3.090 2.689  3.491 1.000 1.00000 3.090 1.000      5.377  23.000
  318 3.090 2.689  3.491 1.000 1.00000 3.090 1.000      6.043  23.000
  319 3.090 2.689  3.491 1.000 1.00000 3.090 1.000      3.305  23.000
  320 3.080 2.680  3.480 1.000 1.00000 3.080 1.000     11.927  23.000
  321 3.080 2.680  3.480 1.000 1.00000 3.080 1.000      6.623  23.000
  322 3.100 2.698  3.502 1.000 1.00000 3.100 1.000     23.320  23.000
  323 3.080 2.680  3.480 1.000 1.00000 3.080 1.000     26.173  23.000
  324 3.150 2.743  3.557 1.000 1.00000 3.150 1.000     21.215  23.000
  325 3.090 2.689  3.491 1.000 1.00000 3.090 1.000     11.622  23.000
  326 3.110 2.707  3.513 1.000 1.00000 3.110 1.000     31.997  23.000
  327 3.060 2.662  3.458 1.000 1.00000 3.060 1.000      9.648  23.000
  328 3.110 2.707  3.513 1.000 1.00000 3.110 1.000     13.395  23.000
  329 3.090 2.689  3.491 1.000 1.00000 3.090 1.000      8.265  23.000
  330 3.090 2.689  3.491 1.000 1.00000 3.090 1.000     18.127  23.000
  331 3.090 2.689  3.491 1.000 1.00000 3.090 1.000     19.294  23.000
  332 3.060 2.662  3.458 1.000 1.00000 3.060 1.000      3.036  23.000
  333 3.070 2.671  3.469 1.000 1.00000 3.070 1.000      4.132  23.000
  334 3.070 2.671  3.469 1.000 1.00000 3.070 1.000      2.811  23.000
  335 3.080 2.680  3.480 1.000 1.00000 3.080 1.000      4.818  23.000
  336 3.080 2.680  3.480 1.000 1.00000 3.080 1.000      4.218  23.000
  337 3.090 2.689  3.491 1.000 1.00000 3.090 1.000      8.164  23.000
  338 3.050 2.653  3.447 1.000 1.00000 3.050 1.000      6.238  23.000
  339 3.140 2.734  3.546 1.000 1.00000 3.140 1.000     12.758  23.000
  340 3.100 2.698  3.502 1.000 1.00000 3.100 1.000     10.017  23.000
  341 3.090 2.689  3.491 1.000 1.00000 3.090 1.000      5.401  23.000
  342 3.070 2.671  3.469 1.000 1.00000 3.070 1.000      4.076  23.000
  343 3.130 2.725  3.535 1.000 1.00000 3.130 1.000     16.816  23.000
  344 3.080 2.680  3.480 1.000 1.00000 3.080 1.000      3.691  23.000
  345 3.120 2.716  3.524 1.000 1.00000 3.120 1.000     10.152  23.000
  346 3.100 2.698  3.502 1.000 1.00000 3.100 1.000     11.057  23.000
  347 3.050 2.653  3.447 1.000 1.00000 3.050 1.000      1.999  23.000
  348 3.110 2.707  3.513 1.000 1.00000 3.110 1.000      8.839  23.000
  349 3.140 2.734  3.546 1.000 1.00000 3.140 1.000     13.375  23.000
  350 3.090 2.689  3.491 1.000 1.00000 3.090 1.000     11.140  23.000
  351 3.060 2.662  3.458 1.000 1.00000 3.060 1.000      9.630  23.000
  352 3.080 2.680  3.480 1.000 1.00000 3.080 1.000     26.705  23.000
  353 3.090 2.689  3.491 1.000 1.00000 3.090 1.000     37.354  23.000
  354 3.040 2.644  3.436 1.000 1.00000 3.040 1.000      4.506  23.000
  355 3.090 2.689  3.491 1.000 1.00000 3.090 1.000     10.924  23.000
  356 3.080 2.680  3.480 1.000 1.00000 3.080 1.000      7.337  23.000
  357 3.100 2.698  3.502 1.000 1.00000 3.100 1.000     10.461  23.000
  358 3.080 2.680  3.480 1.000 1.00000 3.080 1.000      2.072  23.000
  359 3.100 2.698  3.502 1.000 1.00000 3.100 1.000      4.554  23.000
  360 3.110 2.707  3.513 1.000 1.00000 3.110 1.000     10.467  23.000
  361 3.100 2.698  3.502 1.000 1.00000 3.100 1.000     11.359  23.000
  362 3.110 2.707  3.513 1.000 1.00000 3.110 1.000      8.966  23.000
  363 3.100 2.698  3.502 1.000 1.00000 3.100 1.000      4.761  23.000
  364 3.070 2.671  3.469 1.000 1.00000 3.070 1.000      3.200  23.000
  365 3.090 2.689  3.491 1.000 1.00000 3.090 1.000     10.316  23.000
  366 3.110 2.707  3.513 1.000 1.00000 3.110 1.000      6.990  23.000
  367 3.090 2.689  3.491 1.000 1.00000 3.090 1.000      6.506  23.000
  368 3.090 2.689  3.491 1.000 1.00000 3.090 1.000     10.115  23.000
  369 3.080 2.680  3.480 1.000 1.00000 3.080 1.000      2.145  23.000
  370 3.090 2.689  3.491 1.000 1.00000 3.090 1.000      6.503  23.000
  371 3.090 2.689  3.491 1.000 1.00000 3.090 1.000     11.651  23.000
  372 3.100 2.698  3.502 1.000 1.00000 3.100 1.000      4.735  23.000
  373 3.090 2.689  3.491 1.000 1.00000 3.090 1.000     26.205  23.000
  374 3.090 2.689  3.491 1.000 1.00000 3.090 1.000      8.551  23.000
  375 3.080 2.680  3.480 1.000 1.00000 3.080 1.000     10.152  23.000
  376 3.080 2.680  3.480 1.000 1.00000 3.080 1.000     12.892  23.000
  377 3.060 2.662  3.458 1.000 1.00000 3.060 1.000     16.055  23.000
  378 3.100 2.698  3.502 1.000 1.00000 3.100 1.000     10.779  23.000
  379 3.100 2.698  3.502 1.000 1.00000 3.100 1.000     11.564  23.000
  380 3.120 2.716  3.524 1.000 1.00000 3.120 1.000     12.129  23.000
  381 3.080 2.680  3.480 1.000 1.00000 3.080 1.000      8.013  23.000
  382 3.040 2.644  3.436 1.000 1.00000 3.040 1.000      5.322  23.000
  383 3.120 2.716  3.524 1.000 1.00000 3.120 1.000     13.536  23.000
  384 3.110 2.707  3.513 1.000 1.00000 3.110 1.000     18.006  23.000
  385 3.100 2.698  3.502 1.000 1.00000 3.100 1.000     11.172  23.000
  386 3.090 2.689  3.491 1.000 1.00000 3.090 1.000     33.906  23.000
  387 3.090 2.689  3.491 1.000 1.00000 3.090 1.000      6.987  23.000
  388 3.110 2.707  3.513 1.000 1.00000 3.110 1.000     17.620  23.000
  389 3.080 2.680  3.480 1.000 1.00000 3.080 1.000      5.461  23.000
  390 3.060 2.662  3.458 1.000 1.00000 3.060 1.000      7.941  23.000
  391 3.110 2.707  3.513 1.000 1.00000 3.110 1.000     22.012  23.000
  392 3.070 2.671  3.469 1.000 1.00000 3.070 1.000      4.186  23.000
  393 3.100 2.698  3.502 1.000 1.00000 3.100 1.000     19.159  23.000
  394 3.080 2.680  3.480 1.000 1.00000 3.080 1.000     19.780  23.000
  395 3.070 2.671  3.469 1.000 1.00000 3.070 1.000      2.653  23.000
  396 3.090 2.689  3.491 1.000 1.00000 3.090 1.000     32.636  23.000
  397 3.080 2.680  3.480 1.000 1.00000 3.080 1.000      4.808  23.000
  398 3.090 2.689  3.491 1.000 1.00000 3.090 1.000      4.823  23.000
  399 3.060 2.662  3.458 1.000 1.00000 3.060 1.000     12.731  23.000
  400 3.070 2.671  3.469 1.000 1.00000 3.070 1.000     23.816  23.000
  401 3.090 2.689  3.491 1.000 1.00000 3.090 1.000      5.392  23.000
  402 3.100 2.698  3.502 1.000 1.00000 3.100 1.000     15.933  23.000
  403 3.080 2.680  3.480 1.000 1.00000 3.080 1.000      9.673  23.000
  404 3.060 2.662  3.458 1.000 1.00000 3.060 1.000      1.534  23.000
  405 3.120 2.716  3.524 1.000 1.00000 3.120 1.000      6.196  23.000
  406 3.130 2.725  3.535 1.000 1.00000 3.130 1.000     18.649  23.000
  407 3.090 2.689  3.491 1.000 1.00000 3.090 1.000      3.994  23.000
  408 3.040 2.644  3.436 1.000 1.00000 3.040 1.000      0.613  23.000
  409 3.110 2.707  3.513 1.000 1.00000 3.110 1.000      9.228  23.000
  410 3.110 2.707  3.513 1.000 1.00000 3.110 1.000     14.720  23.000
  411 3.080 2.680  3.480 1.000 1.00000 3.080 1.000      4.533  23.000
  412 3.070 2.671  3.469 1.000 1.00000 3.070 1.000     12.813  23.000
  413 3.060 2.662  3.458 1.000 1.00000 3.060 1.000      1.843  23.000
  414 3.070 2.671  3.469 1.000 1.00000 3.070 1.000      8.307  23.000
  415 3.070 2.671  3.469 1.000 1.00000 3.070 1.000      3.300  23.000
  416 3.080 2.680  3.480 1.000 1.00000 3.080 1.000      3.819  23.000
  417 3.080 2.680  3.480 1.000 1.00000 3.080 1.000      2.337  23.000
  418 3.060 2.662  3.458 1.000 1.00000 3.060 1.000      1.810  23.000
  419 3.110 2.707  3.513 1.000 1.00000 3.110 1.000     13.702  23.000
  420 3.080 2.680  3.480 1.000 1.00000 3.080 1.000     12.841  23.000
  421 3.080 2.680  3.480 1.000 1.00000 3.080 1.000      2.411  23.000
  422 3.100 2.698  3.502 1.000 1.00000 3.100 1.000      7.999  23.000
  423 3.120 2.716  3.524 1.000 1.00000 3.120 1.000      8.188  23.000
  424 3.060 2.662  3.458 1.000 1.00000 3.060 1.000      3.334  23.000
  425 3.080 2.680  3.480 1.000 1.00000 3.080 1.000     15.136  23.000
  426 3.070 2.671  3.469 1.000 1.00000 3.070 1.000     16.227  23.000
  427 3.080 2.680  3.480 1.000 1.00000 3.080 1.000     47.800  23.000
  428 3.110 2.707  3.513 1.000 1.00000 3.110 1.000     16.987  23.000
  429 3.110 2.707  3.513 1.000 1.00000 3.110 1.000      7.126  23.000
  430 3.070 2.671  3.469 1.000 1.00000 3.070 1.000     17.716  23.000
  431 3.060 2.662  3.458 1.000 1.00000 3.060 1.000      5.662  23.000
  432 3.080 2.680  3.480 1.000 1.00000 3.080 1.000      2.768  23.000
  433 3.080 2.680  3.480 1.000 1.00000 3.080 1.000      3.938  23.000
  434 3.080 2.680  3.480 1.000 1.00000 3.080 1.000      5.390  23.000
  435 3.100 2.698  3.502 1.000 1.00000 3.100 1.000     25.050  23.000
  436 3.080 2.680  3.480 1.000 1.00000 3.080 1.000      8.038  23.000
  437 3.100 2.698  3.502 1.000 1.00000 3.100 1.000      5.865  23.000
  438 3.080 2.680  3.480 1.000 1.00000 3.080 1.000     11.792  23.000
  439 3.100 2.698  3.502 1.000 1.00000 3.100 1.000      7.206  23.000
  440 3.070 2.671  3.469 1.000 1.00000 3.070 1.000      1.895  23.000
  441 3.060 2.662  3.458 1.000 1.00000 3.060 1.000      3.950  23.000
  442 3.070 2.671  3.469 1.000 1.00000 3.070 1.000     13.966  23.000
  443 3.070 2.671  3.469 1.000 1.00000 3.070 1.000      2.179  23.000
  444 3.110 2.707  3.513 1.000 1.00000 3.110 1.000      8.913  23.000
  445 3.070 2.671  3.469 1.000 1.00000 3.070 1.000      6.214  23.000
  446 3.090 2.689  3.491 1.000 1.00000 3.090 1.000     15.128  23.000
  447 3.080 2.680  3.480 1.000 1.00000 3.080 1.000      2.678  23.000
  448 3.060 2.662  3.458 1.000 1.00000 3.060 1.000      7.649  23.000
  449 3.070 2.671  3.469 1.000 1.00000 3.070 1.000      3.692  23.000
  450 3.060 2.662  3.458 1.000 1.00000 3.060 1.000      2.069  23.000
  451 3.120 2.716  3.524 1.000 1.00000 3.120 1.000      7.227  23.000
  452 3.050 2.653  3.447 1.000 1.00000 3.050 1.000      2.902  23.000
  453 3.090 2.689  3.491 1.000 1.00000 3.090 1.000     12.207  23.000
  454 3.100 2.698  3.502 1.000 1.00000 3.100 1.000      8.434  23.000
  455 3.120 2.716  3.524 1.000 1.00000 3.120 1.000      9.239  23.000
  456 3.100 2.698  3.502 1.000 1.00000 3.100 1.000     13.321  23.000
  457 3.110 2.707  3.513 1.000 1.00000 3.110 1.000      8.842  23.000
  458 3.100 2.698  3.502 1.000 1.00000 3.100 1.000      8.135  23.000
  459 3.090 2.689  3.491 1.000 1.00000 3.090 1.000      5.444  23.000
  460 3.090 2.689  3.491 1.000 1.00000 3.090 1.000     35.155  23.000
  461 3.070 2.671  3.469 1.000 1.00000 3.070 1.000     25.322  23.000
  462 3.120 2.716  3.524 1.000 1.00000 3.120 1.000     17.599  23.000
  463 3.090 2.689  3.491 1.000 1.00000 3.090 1.000      6.844  23.000
  464 3.110 2.707  3.513 1.000 1.00000 3.110 1.000     20.352  23.000
  465 3.100 2.698  3.502 1.000 1.00000 3.100 1.000      5.500  23.000
  466 3.070 2.671  3.469 1.000 1.00000 3.070 1.000      2.934  23.000
  467 3.090 2.689  3.491 1.000 1.00000 3.090 1.000      9.382  23.000
  468 3.100 2.698  3.502 1.000 1.00000 3.100 1.000      7.222  23.000
  469 3.100 2.698  3.502 1.000 1.00000 3.100 1.000     19.673  23.000
  470 3.050 2.653  3.447 1.000 1.00000 3.050 1.000      1.683  23.000
  471 3.100 2.698  3.502 1.000 1.00000 3.100 1.000     26.964  23.000
  472 3.090 2.689  3.491 1.000 1.00000 3.090 1.000      9.719  23.000
  473 3.080 2.680  3.480 1.000 1.00000 3.080 1.000      4.183  23.000
  474 3.100 2.698  3.502 1.000 1.00000 3.100 1.000     10.068  23.000
  475 3.090 2.689  3.491 1.000 1.00000 3.090 1.000     27.125  23.000
  476 3.070 2.671  3.469 1.000 1.00000 3.070 1.000      3.867  23.000
  477 3.090 2.689  3.491 1.000 1.00000 3.090 1.000      3.536  23.000
  478 3.100 2.698  3.502 1.000 1.00000 3.100 1.000     21.520  23.000
  479 3.110 2.707  3.513 1.000 1.00000 3.110 1.000     25.046  23.000
  480 3.070 2.671  3.469 1.000 1.00000 3.070 1.000      4.795  23.000
  481 3.070 2.671  3.469 1.000 1.00000 3.070 1.000      1.574  23.000
  482 3.090 2.689  3.491 1.000 1.00000 3.090 1.000      5.476  23.000
  483 3.100 2.698  3.502 1.000 1.00000 3.100 1.000      7.163  23.000
  484 3.080 2.680  3.480 1.000 1.00000 3.080 1.000      3.703  23.000
  485 3.110 2.707  3.513 1.000 1.00000 3.110 1.000     27.207  23.000
  486 3.060 2.662  3.458 1.000 1.00000 3.060 1.000     10.607  23.000
  487 3.130 2.725  3.535 1.000 1.00000 3.130 1.000      9.560  23.000
  488 3.080 2.680  3.480 1.000 1.00000 3.080 1.000      2.658  23.000
  489 3.100 2.698  3.502 1.000 1.00000 3.100 1.000     12.170  23.000
  490 3.100 2.698  3.502 1.000 1.00000 3.100 1.000      5.074  23.000
  491 3.080 2.680  3.480 1.000 1.00000 3.080 1.000     13.860  23.000
  492 3.080 2.680  3.480 1.000 1.00000 3.080 1.000     29.086  23.000
  493 3.080 2.680  3.480 1.000 1.00000 3.080 1.000     13.728  23.000
  494 3.090 2.689  3.491 1.000 1.00000 3.090 1.000      6.369  23.000
  495 3.060 2.662  3.458 1.000 1.00000 3.060 1.000      6.855  23.000
  496 3.100 2.698  3.502 1.000 1.00000 3.100 1.000      7.205  23.000
  497 3.090 2.689  3.491 1.000 1.00000 3.090 1.000      4.468  23.000
  498 3.100 2.698  3.502 1.000 1.00000 3.100 1.000     10.255  23.000
  499 3.090 2.689  3.491 1.000 1.00000 3.090 1.000      8.129  23.000
  500 3.110 2.707  3.513 1.000 1.00000 3.110 1.000     20.482  23.000
  501 3.110 2.707  3.513 1.000 1.00000 3.110 1.000      6.488  23.000
  502 3.070 2.671  3.469 1.000 1.00000 3.070 1.000      5.213  23.000
  503 3.100 2.698  3.502 1.000 1.00000 3.100 1.000     44.789  23.000
  504 3.080 2.680  3.480 1.000 1.00000 3.080 1.000      4.164  23.000
  505 3.060 2.662  3.458 1.000 1.00000 3.060 1.000      2.772  23.000
  506 3.060 2.662  3.458 1.000 1.00000 3.060 1.000     14.837  23.000
  507 3.080 2.680  3.480 1.000 1.00000 3.080 1.000      2.389  23.000
  508 3.090 2.689  3.491 1.000 1.00000 3.090 1.000      3.978  23.000
  509 3.080 2.680  3.480 1.000 1.00000 3.080 1.000      8.656  23.000
  510 3.100 2.698  3.502 1.000 1.00000 3.100 1.000      4.087  23.000
  511 3.050 2.653  3.447 1.000 1.00000 3.050 1.000      2.001  23.000
  512 3.080 2.680  3.480 1.000 1.00000 3.080 1.000      5.198  23.000
  513 3.090 2.689  3.491 1.000 1.00000 3.090 1.000     26.150  23.000
  514 3.120 2.716  3.524 1.000 1.00000 3.120 1.000      9.515  23.000
  515 3.080 2.680  3.480 1.000 1.00000 3.080 1.000      3.652  23.000
  516 3.090 2.689  3.491 1.000 1.00000 3.090 1.000      4.731  23.000
  517 3.090 2.689  3.491 1.000 1.00000 3.090 1.000     17.956  23.000
  518 3.080 2.680  3.480 1.000 1.00000 3.080 1.000      5.267  23.000
  519 3.060 2.662  3.458 1.000 1.00000 3.060 1.000      1.225  23.000
  520 3.070 2.671  3.469 1.000 1.00000 3.070 1.000      8.906  23.000
  521 3.090 2.689  3.491 1.000 1.00000 3.090 1.000     14.849  23.000
  522 3.130 2.725  3.535 1.000 1.00000 3.130 1.000     41.848  23.000
  523 3.090 2.689  3.491 1.000 1.00000 3.090 1.000      8.551  23.000
  524 3.100 2.698  3.502 1.000 1.00000 3.100 1.000      4.076  23.000
  525 3.070 2.671  3.469 1.000 1.00000 3.070 1.000      1.969  23.000
  526 3.070 2.671  3.469 1.000 1.00000 3.070 1.000      8.234  23.000
  527 3.090 2.689  3.491 1.000 1.00000 3.090 1.000      3.451  23.000
  528 3.130 2.725  3.535 1.000 1.00000 3.130 1.000     16.439  23.000
  529 3.090 2.689  3.491 1.000 1.00000 3.090 1.000      4.563  23.000
  530 3.090 2.689  3.491 1.000 1.00000 3.090 1.000      3.576  23.000
  531 3.120 2.716  3.524 1.000 1.00000 3.120 1.000     10.043  23.000
  532 3.090 2.689  3.491 1.000 1.00000 3.090 1.000      4.357  23.000
  533 3.080 2.680  3.480 1.000 1.00000 3.080 1.000      9.878  23.000
  534 3.090 2.689  3.491 1.000 1.00000 3.090 1.000      6.926  23.000
  535 3.110 2.707  3.513 1.000 1.00000 3.110 1.000     11.635  23.000
  536 3.120 2.716  3.524 1.000 1.00000 3.120 1.000      6.909  23.000
  537 3.090 2.689  3.491 1.000 1.00000 3.090 1.000     12.977  23.000
  538 3.080 2.680  3.480 1.000 1.00000 3.080 1.000     14.145  23.000
  539 3.080 2.680  3.480 1.000 1.00000 3.080 1.000      3.207  23.000
  540 3.090 2.689  3.491 1.000 1.00000 3.090 1.000      6.823  23.000
  541 3.090 2.689  3.491 1.000 1.00000 3.090 1.000      4.624  23.000
  542 3.090 2.689  3.491 1.000 1.00000 3.090 1.000      4.017  23.000
  543 3.100 2.698  3.502 1.000 1.00000 3.100 1.000      8.604  23.000
  544 3.090 2.689  3.491 1.000 1.00000 3.090 1.000     16.320  23.000
  545 3.060 2.662  3.458 1.000 1.00000 3.060 1.000     24.893  23.000
  546 3.090 2.689  3.491 1.000 1.00000 3.090 1.000      3.976  23.000
  547 3.100 2.698  3.502 1.000 1.00000 3.100 1.000     10.603  23.000
  548 3.090 2.689  3.491 1.000 1.00000 3.090 1.000      6.729  23.000
  549 3.070 2.671  3.469 1.000 1.00000 3.070 1.000      2.208  23.000
  550 3.090 2.689  3.491 1.000 1.00000 3.090 1.000     23.967  23.000
  551 3.130 2.725  3.535 1.000 1.00000 3.130 1.000      7.517  23.000
  552 3.090 2.689  3.491 1.000 1.00000 3.090 1.000     13.707  23.000
  553 3.110 2.707  3.513 1.000 1.00000 3.110 1.000      9.332  23.000
  554 3.150 2.743  3.557 1.000 1.00000 3.150 1.000     10.690  23.000
  555 3.070 2.671  3.469 1.000 1.00000 3.070 1.000      1.731  23.000
  556 3.090 2.689  3.491 1.000 1.00000 3.090 1.000     12.384  23.000
  557 3.140 2.734  3.546 1.000 1.00000 3.140 1.000     18.383  23.000
  558 3.090 2.689  3.491 1.000 1.00000 3.090 1.000      6.807  23.000
  559 3.070 2.671  3.469 1.000 1.00000 3.070 1.000      5.139  23.000
  560 3.120 2.716  3.524 1.000 1.00000 3.120 1.000      7.099  23.000
  561 3.110 2.707  3.513 1.000 1.00000 3.110 1.000      9.390  23.000
  562 3.120 2.716  3.524 1.000 1.00000 3.120 1.000     10.603  23.000
  563 3.090 2.689  3.491 1.000 1.00000 3.090 1.000     12.552  23.000
  564 3.060 2.662  3.458 1.000 1.00000 3.060 1.000      6.453  23.000
  565 3.060 2.662  3.458 1.000 1.00000 3.060 1.000      2.569  23.000
  566 3.070 2.671  3.469 1.000 1.00000 3.070 1.000      9.555  23.000
  567 3.070 2.671  3.469 1.000 1.00000 3.070 1.000      4.976  23.000
  568 3.110 2.707  3.513 1.000 1.00000 3.110 1.000     36.806  23.000
  569 3.060 2.662  3.458 1.000 1.00000 3.060 1.000      1.174  23.000
  570 3.110 2.707  3.513 1.000 1.00000 3.110 1.000     10.947  23.000
  571 3.080 2.680  3.480 1.000 1.00000 3.080 1.000     11.737  23.000
  572 3.110 2.707  3.513 1.000 1.00000 3.110 1.000      9.957  23.000
  573 3.080 2.680  3.480 1.000 1.00000 3.080 1.000      3.354  23.000
  574 3.120 2.716  3.524 1.000 1.00000 3.120 1.000     11.463  23.000
  575 3.100 2.698  3.502 1.000 1.00000 3.100 1.000      6.567  23.000
  576 3.080 2.680  3.480 1.000 1.00000 3.080 1.000      5.268  23.000
  577 3.090 2.689  3.491 1.000 1.00000 3.090 1.000      2.902  23.000
  578 3.110 2.707  3.513 1.000 1.00000 3.110 1.000     10.643  23.000
  579 3.080 2.680  3.480 1.000 1.00000 3.080 1.000      6.418  23.000
  580 3.090 2.689  3.491 1.000 1.00000 3.090 1.000      5.380  23.000
  581 3.060 2.662  3.458 1.000 1.00000 3.060 1.000      3.003  23.000
  582 3.070 2.671  3.469 1.000 1.00000 3.070 1.000      5.651  23.000
  583 3.120 2.716  3.524 1.000 1.00000 3.120 1.000     12.033  23.000
  584 3.090 2.689  3.491 1.000 1.00000 3.090 1.000     12.932  23.000
  585 3.120 2.716  3.524 1.000 1.00000 3.120 1.000      7.645  23.000
  586 3.090 2.689  3.491 1.000 1.00000 3.090 1.000      3.859  23.000
  587 3.090 2.689  3.491 1.000 1.00000 3.090 1.000     13.247  23.000
  588 3.090 2.689  3.491 1.000 1.00000 3.090 1.000      7.328  23.000
  589 3.120 2.716  3.524 1.000 1.00000 3.120 1.000     12.417  23.000
  590 3.140 2.734  3.546 1.000 1.00000 3.140 1.000     12.144  23.000
  591 3.110 2.707  3.513 1.000 1.00000 3.110 1.000     16.549  23.000
  592 3.090 2.689  3.491 1.000 1.00000 3.090 1.000     11.349  23.000
  593 3.070 2.671  3.469 1.000 1.00000 3.070 1.000      5.846  23.000
  594 3.060 2.662  3.458 1.000 1.00000 3.060 1.000      6.914  23.000
  595 3.080 2.680  3.480 1.000 1.00000 3.080 1.000     41.078  23.000
  596 3.100 2.698  3.502 1.000 1.00000 3.100 1.000      6.844  23.000
  597 3.050 2.653  3.447 1.000 1.00000 3.050 1.000      4.504  23.000
  598 3.060 2.662  3.458 1.000 1.00000 3.060 1.000      3.300  23.000
  599 3.110 2.707  3.513 1.000 1.00000 3.110 1.000      9.567  23.000
  600 3.130 2.725  3.535 1.000 1.00000 3.130 1.000      8.573  23.000
  601 3.100 2.698  3.502 1.000 1.00000 3.100 1.000      6.608  23.000
  602 3.140 2.734  3.546 1.000 1.00000 3.140 1.000      9.336  23.000
  603 3.130 2.725  3.535 1.000 1.00000 3.130 1.000     13.239  23.000
  604 3.100 2.698  3.502 1.000 1.00000 3.100 1.000      6.787  23.000
  605 3.080 2.680  3.480 1.000 1.00000 3.080 1.000      2.605  23.000
  606 3.060 2.662  3.458 1.000 1.00000 3.060 1.000      5.034  23.000
  607 3.120 2.716  3.524 1.000 1.00000 3.120 1.000     11.557  23.000
  608 3.100 2.698  3.502 1.000 1.00000 3.100 1.000      8.847  23.000
  609 3.120 2.716  3.524 1.000 1.00000 3.120 1.000     32.007  23.000
  610 3.050 2.653  3.447 1.000 1.00000 3.050 1.000      5.818  23.000
  611 3.120 2.716  3.524 1.000 1.00000 3.120 1.000     10.230  23.000
  612 3.090 2.689  3.491 1.000 1.00000 3.090 1.000     29.863  23.000
  613 3.070 2.671  3.469 1.000 1.00000 3.070 1.000      2.763  23.000
  614 3.050 2.653  3.447 1.000 1.00000 3.050 1.000      1.788  23.000
  615 3.090 2.689  3.491 1.000 1.00000 3.090 1.000     10.718  23.000
  616 3.120 2.716  3.524 1.000 1.00000 3.120 1.000     11.020  23.000
  617 3.100 2.698  3.502 1.000 1.00000 3.100 1.000      7.176  23.000
  618 3.110 2.707  3.513 1.000 1.00000 3.110 1.000      7.095  23.000
  619 3.070 2.671  3.469 1.000 1.00000 3.070 1.000     10.212  23.000
  620 3.130 2.725  3.535 1.000 1.00000 3.130 1.000     12.063  23.000
  621 3.070 2.671  3.469 1.000 1.00000 3.070 1.000     16.419  23.000
  622 3.120 2.716  3.524 1.000 1.00000 3.120 1.000     34.614  23.000
  623 3.080 2.680  3.480 1.000 1.00000 3.080 1.000      2.551  23.000
  624 3.100 2.698  3.502 1.000 1.00000 3.100 1.000      3.895  23.000
  625 3.080 2.680  3.480 1.000 1.00000 3.080 1.000      7.791  23.000
  626 3.060 2.662  3.458 1.000 1.00000 3.060 1.000      9.194  23.000
  627 3.130 2.725  3.535 1.000 1.00000 3.130 1.000      9.252  23.000
  628 3.080 2.680  3.480 1.000 1.00000 3.080 1.000      7.303  23.000
  629 3.100 2.698  3.502 1.000 1.00000 3.100 1.000      7.231  23.000
  630 3.110 2.707  3.513 1.000 1.00000 3.110 1.000      6.314  23.000
  631 3.080 2.680  3.480 1.000 1.00000 3.080 1.000      3.051  23.000
  632 3.070 2.671  3.469 1.000 1.00000 3.070 1.000      8.865  23.000
  633 3.090 2.689  3.491 1.000 1.00000 3.090 1.000      6.953  23.000
  634 3.090 2.689  3.491 1.000 1.00000 3.090 1.000      5.909  23.000
  635 3.100 2.698  3.502 1.000 1.00000 3.100 1.000     17.934  23.000
  636 3.130 2.725  3.535 1.000 1.00000 3.130 1.000     12.447  23.000
  637 3.090 2.689  3.491 1.000 1.00000 3.090 1.000      4.243  23.000
  638 3.090 2.689  3.491 1.000 1.00000 3.090 1.000      3.913  23.000
  639 3.090 2.689  3.491 1.000 1.00000 3.090 1.000      5.083  23.000
  640 3.080 2.680  3.480 1.000 1.00000 3.080 1.000      3.146  23.000
  641 3.070 2.671  3.469 1.000 1.00000 3.070 1.000      2.671  23.000
  642 3.070 2.671  3.469 1.000 1.00000 3.070 1.000      1.641  23.000
  643 3.080 2.680  3.480 1.000 1.00000 3.080 1.000     11.144  23.000
  644 3.130 2.725  3.535 1.000 1.00000 3.130 1.000     10.326  23.000
  645 3.090 2.689  3.491 1.000 1.00000 3.090 1.000      8.165  23.000
  646 3.110 2.707  3.513 1.000 1.00000 3.110 1.000      7.505  23.000
  647 3.100 2.698  3.502 1.000 1.00000 3.100 1.000     32.106  23.000
  648 3.080 2.680  3.480 1.000 1.00000 3.080 1.000     12.728  23.000
  649 3.080 2.680  3.480 1.000 1.00000 3.080 1.000      3.826  23.000
  650 3.080 2.680  3.480 1.000 1.00000 3.080 1.000      5.500  23.000
  651 3.090 2.689  3.491 1.000 1.00000 3.090 1.000      9.382  23.000
  652 3.080 2.680  3.480 1.000 1.00000 3.080 1.000      5.378  23.000
  653 3.080 2.680  3.480 1.000 1.00000 3.080 1.000      2.453  23.000
  654 3.090 2.689  3.491 1.000 1.00000 3.090 1.000     15.294  23.000
  655 3.100 2.698  3.502 1.000 1.00000 3.100 1.000      9.099  23.000
  656 3.060 2.662  3.458 1.000 1.00000 3.060 1.000      2.625  23.000
  657 3.080 2.680  3.480 1.000 1.00000 3.080 1.000      3.587  23.000
  658 3.080 2.680  3.480 1.000 1.00000 3.080 1.000      4.857  23.000
  659 3.100 2.698  3.502 1.000 1.00000 3.100 1.000      6.932  23.000
  660 3.110 2.707  3.513 1.000 1.00000 3.110 1.000      8.369  23.000
  661 3.060 2.662  3.458 1.000 1.00000 3.060 1.000      4.385  23.000
  662 3.080 2.680  3.480 1.000 1.00000 3.080 1.000      3.587  23.000
  663 3.080 2.680  3.480 1.000 1.00000 3.080 1.000      3.258  23.000
  664 3.120 2.716  3.524 1.000 1.00000 3.120 1.000     10.052  23.000
  665 3.080 2.680  3.480 1.000 1.00000 3.080 1.000     17.245  23.000
  666 3.060 2.662  3.458 1.000 1.00000 3.060 1.000      7.209  23.000
  667 3.090 2.689  3.491 1.000 1.00000 3.090 1.000      3.224  23.000
  668 3.080 2.680  3.480 1.000 1.00000 3.080 1.000      4.178  23.000
  669 3.050 2.653  3.447 1.000 1.00000 3.050 1.000      9.384  23.000
  670 3.080 2.680  3.480 1.000 1.00000 3.080 1.000      5.688  23.000
  671 3.080 2.680  3.480 1.000 1.00000 3.080 1.000     22.038  23.000
  672 3.110 2.707  3.513 1.000 1.00000 3.110 1.000     40.582  23.000
  673 3.070 2.671  3.469 1.000 1.00000 3.070 1.000      3.657  23.000
  674 3.080 2.680  3.480 1.000 1.00000 3.080 1.000      3.852  23.000
  675 3.060 2.662  3.458 1.000 1.00000 3.060 1.000      1.725  23.000
  676 3.070 2.671  3.469 1.000 1.00000 3.070 1.000      5.681  23.000
  677 3.070 2.671  3.469 1.000 1.00000 3.070 1.000      7.194  23.000
  678 3.070 2.671  3.469 1.000 1.00000 3.070 1.000      5.022  23.000
  679 3.120 2.716  3.524 1.000 1.00000 3.120 1.000      6.390  23.000
  680 3.090 2.689  3.491 1.000 1.00000 3.090 1.000     10.385  23.000
  681 3.080 2.680  3.480 1.000 1.00000 3.080 1.000      6.150  23.000
  682 3.090 2.689  3.491 1.000 1.00000 3.090 1.000      5.606  23.000
  683 3.120 2.716  3.524 1.000 1.00000 3.120 1.000     10.461  23.000
  684 3.100 2.698  3.502 1.000 1.00000 3.100 1.000      7.240  23.000
  685 3.070 2.671  3.469 1.000 1.00000 3.070 1.000     14.449  23.000
  686 3.080 2.680  3.480 1.000 1.00000 3.080 1.000     18.050  23.000
  687 3.090 2.689  3.491 1.000 1.00000 3.090 1.000      7.395  23.000
  688 3.110 2.707  3.513 1.000 1.00000 3.110 1.000     26.170  23.000
  689 3.100 2.698  3.502 1.000 1.00000 3.100 1.000      5.867  23.000
  690 3.090 2.689  3.491 1.000 1.00000 3.090 1.000     21.607  23.000
  691 3.080 2.680  3.480 1.000 1.00000 3.080 1.000      4.415  23.000
  692 3.130 2.725  3.535 1.000 1.00000 3.130 1.000      9.039  23.000
  693 3.070 2.671  3.469 1.000 1.00000 3.070 1.000     19.231  23.000
  694 3.120 2.716  3.524 1.000 1.00000 3.120 1.000      6.066  23.000
  695 3.080 2.680  3.480 1.000 1.00000 3.080 1.000      5.895  23.000
  696 3.090 2.689  3.491 1.000 1.00000 3.090 1.000      5.857  23.000
  697 3.110 2.707  3.513 1.000 1.00000 3.110 1.000     10.378  23.000
  698 3.080 2.680  3.480 1.000 1.00000 3.080 1.000      5.455  23.000
  699 3.090 2.689  3.491 1.000 1.00000 3.090 1.000      3.864  23.000
  700 3.070 2.671  3.469 1.000 1.00000 3.070 1.000      2.958  23.000
  701 3.070 2.671  3.469 1.000 1.00000 3.070 1.000      4.364  23.000
  702 3.100 2.698  3.502 1.000 1.00000 3.100 1.000     16.812  23.000
  703 3.060 2.662  3.458 1.000 1.00000 3.060 1.000     11.819  23.000
  704 3.100 2.698  3.502 1.000 1.00000 3.100 1.000     11.842  23.000
  705 3.100 2.698  3.502 1.000 1.00000 3.100 1.000     38.211  23.000
  706 3.090 2.689  3.491 1.000 1.00000 3.090 1.000      8.050  23.000
  707 3.070 2.671  3.469 1.000 1.00000 3.070 1.000      7.695  23.000
  708 3.090 2.689  3.491 1.000 1.00000 3.090 1.000      7.779  23.000
  709 3.160 2.752  3.568 1.000 1.00000 3.160 1.000     49.377  23.000
  710 3.080 2.680  3.480 1.000 1.00000 3.080 1.000      2.440  23.000
  711 3.090 2.689  3.491 1.000 1.00000 3.090 1.000      7.325  23.000
  712 3.070 2.671  3.469 1.000 1.00000 3.070 1.000      1.817  23.000
  713 3.090 2.689  3.491 1.000 1.00000 3.090 1.000      3.979  23.000
  714 3.090 2.689  3.491 1.000 1.00000 3.090 1.000     12.064  23.000
  715 3.060 2.662  3.458 1.000 1.00000 3.060 1.000      2.617  23.000
  716 3.100 2.698  3.502 1.000 1.00000 3.100 1.000     28.330  23.000
  717 3.090 2.689  3.491 1.000 1.00000 3.090 1.000     18.786  23.000
  718 3.060 2.662  3.458 1.000 1.00000 3.060 1.000      3.833  23.000
  719 3.090 2.689  3.491 1.000 1.00000 3.090 1.000      5.844  23.000
  720 3.080 2.680  3.480 1.000 1.00000 3.080 1.000      6.615  23.000
  721 3.070 2.671  3.469 1.000 1.00000 3.070 1.000      3.522  23.000
  722 3.070 2.671  3.469 1.000 1.00000 3.070 1.000     17.939  23.000
  723 3.090 2.689  3.491 1.000 1.00000 3.090 1.000     18.464  23.000
  724 3.120 2.716  3.524 1.000 1.00000 3.120 1.000     33.663  23.000
  725 3.120 2.716  3.524 1.000 1.00000 3.120 1.000     26.416  23.000
  726 3.080 2.680  3.480 1.000 1.00000 3.080 1.000     11.920  23.000
  727 3.140 2.734  3.546 1.000 1.00000 3.140 1.000     19.370  23.000
  728 3.070 2.671  3.469 1.000 1.00000 3.070 1.000      5.677  23.000
  729 3.070 2.671  3.469 1.000 1.00000 3.070 1.000      1.988  23.000
  730 3.080 2.680  3.480 1.000 1.00000 3.080 1.000      5.857  23.000
  731 3.110 2.707  3.513 1.000 1.00000 3.110 1.000      7.301  23.000
  732 3.060 2.662  3.458 1.000 1.00000 3.060 1.000      2.749  23.000
  733 3.100 2.698  3.502 1.000 1.00000 3.100 1.000     13.352  23.000
  734 3.090 2.689  3.491 1.000 1.00000 3.090 1.000     11.186  23.000
  735 3.110 2.707  3.513 1.000 1.00000 3.110 1.000     13.279  23.000
  736 3.080 2.680  3.480 1.000 1.00000 3.080 1.000      4.702  23.000
  737 3.110 2.707  3.513 1.000 1.00000 3.110 1.000      8.966  23.000
  738 3.050 2.653  3.447 1.000 1.00000 3.050 1.000      0.911  23.000
  739 3.110 2.707  3.513 1.000 1.00000 3.110 1.000      9.023  23.000
  740 3.100 2.698  3.502 1.000 1.00000 3.100 1.000      5.716  23.000
  741 3.090 2.689  3.491 1.000 1.00000 3.090 1.000      5.684  23.000
  742 3.100 2.698  3.502 1.000 1.00000 3.100 1.000      4.243  23.000
  743 3.080 2.680  3.480 1.000 1.00000 3.080 1.000      4.589  23.000
  744 3.080 2.680  3.480 1.000 1.00000 3.080 1.000      4.240  23.000
  745 3.060 2.662  3.458 1.000 1.00000 3.060 1.000     17.769  23.000
  746 3.110 2.707  3.513 1.000 1.00000 3.110 1.000     16.804  23.000
  747 3.070 2.671  3.469 1.000 1.00000 3.070 1.000      7.433  23.000
  748 3.080 2.680  3.480 1.000 1.00000 3.080 1.000     17.136  23.000
  749 3.140 2.734  3.546 1.000 1.00000 3.140 1.000     13.421  23.000
  750 3.060 2.662  3.458 1.000 1.00000 3.060 1.000      3.722  23.000
  751 3.130 2.725  3.535 1.000 1.00000 3.130 1.000     25.005  23.000
  752 3.090 2.689  3.491 1.000 1.00000 3.090 1.000      2.933  23.000
  753 3.070 2.671  3.469 1.000 1.00000 3.070 1.000      2.977  23.000
  754 3.130 2.725  3.535 1.000 1.00000 3.130 1.000     11.839  23.000
  755 3.110 2.707  3.513 1.000 1.00000 3.110 1.000     20.409  23.000
  756 3.120 2.716  3.524 1.000 1.00000 3.120 1.000     18.251  23.000
  757 3.110 2.707  3.513 1.000 1.00000 3.110 1.000     24.969  23.000
  758 3.060 2.662  3.458 1.000 1.00000 3.060 1.000      4.757  23.000
  759 3.070 2.671  3.469 1.000 1.00000 3.070 1.000      4.591  23.000
  760 3.080 2.680  3.480 1.000 1.00000 3.080 1.000      7.510  23.000
  761 3.090 2.689  3.491 1.000 1.00000 3.090 1.000      8.176  23.000
  762 3.060 2.662  3.458 1.000 1.00000 3.060 1.000      2.689  23.000
  763 3.060 2.662  3.458 1.000 1.00000 3.060 1.000      9.597  23.000
  764 3.100 2.698  3.502 1.000 1.00000 3.100 1.000     16.903  23.000
  765 3.070 2.671  3.469 1.000 1.00000 3.070 1.000      1.955  23.000
  766 3.110 2.707  3.513 1.000 1.00000 3.110 1.000      5.597  23.000
  767 3.080 2.680  3.480 1.000 1.00000 3.080 1.000      5.863  23.000
  768 3.110 2.707  3.513 1.000 1.00000 3.110 1.000     14.025  23.000
  769 3.070 2.671  3.469 1.000 1.00000 3.070 1.000     10.168  23.000
  770 3.100 2.698  3.502 1.000 1.00000 3.100 1.000     16.193  23.000
  771 3.090 2.689  3.491 1.000 1.00000 3.090 1.000      5.687  23.000
  772 3.070 2.671  3.469 1.000 1.00000 3.070 1.000     14.029  23.000
  773 3.090 2.689  3.491 1.000 1.00000 3.090 1.000      7.095  23.000
  774 3.060 2.662  3.458 1.000 1.00000 3.060 1.000      1.168  23.000
  775 3.080 2.680  3.480 1.000 1.00000 3.080 1.000      4.343  23.000
  776 3.070 2.671  3.469 1.000 1.00000 3.070 1.000      4.275  23.000
  777 3.100 2.698  3.502 1.000 1.00000 3.100 1.000      4.060  23.000
  778 3.130 2.725  3.535 1.000 1.00000 3.130 1.000     19.407  23.000
  779 3.130 2.725  3.535 1.000 1.00000 3.130 1.000      9.260  23.000
  780 3.090 2.689  3.491 1.000 1.00000 3.090 1.000     15.853  23.000
  781 3.070 2.671  3.469 1.000 1.00000 3.070 1.000     14.478  23.000
  782 3.090 2.689  3.491 1.000 1.00000 3.090 1.000     20.625  23.000
  783 3.070 2.671  3.469 1.000 1.00000 3.070 1.000     22.253  23.000
  784 3.100 2.698  3.502 1.000 1.00000 3.100 1.000     14.476  23.000
  785 3.090 2.689  3.491 1.000 1.00000 3.090 1.000      2.948  23.000
  786 3.080 2.680  3.480 1.000 1.00000 3.080 1.000      7.900  23.000
  787 3.070 2.671  3.469 1.000 1.00000 3.070 1.000      9.441  23.000
  788 3.110 2.707  3.513 1.000 1.00000 3.110 1.000     14.215  23.000
  789 3.060 2.662  3.458 1.000 1.00000 3.060 1.000      1.167  23.000
  790 3.120 2.716  3.524 1.000 1.00000 3.120 1.000     11.727  23.000
  791 3.090 2.689  3.491 1.000 1.00000 3.090 1.000     43.757  23.000
  792 3.080 2.680  3.480 1.000 1.00000 3.080 1.000     12.216  23.000
  793 3.100 2.698  3.502 1.000 1.00000 3.100 1.000     23.716  23.000
  794 3.110 2.707  3.513 1.000 1.00000 3.110 1.000     10.115  23.000
  795 3.060 2.662  3.458 1.000 1.00000 3.060 1.000      1.441  23.000
  796 3.110 2.707  3.513 1.000 1.00000 3.110 1.000     23.977  23.000
  797 3.090 2.689  3.491 1.000 1.00000 3.090 1.000      6.680  23.000
  798 3.090 2.689  3.491 1.000 1.00000 3.090 1.000     19.182  23.000
  799 3.070 2.671  3.469 1.000 1.00000 3.070 1.000      3.411  23.000
  800 3.090 2.689  3.491 1.000 1.00000 3.090 1.000      4.887  23.000
  801 3.070 2.671  3.469 1.000 1.00000 3.070 1.000     20.589  23.000
  802 3.110 2.707  3.513 1.000 1.00000 3.110 1.000     28.067  23.000
  803 3.060 2.662  3.458 1.000 1.00000 3.060 1.000     22.785  23.000
  804 3.080 2.680  3.480 1.000 1.00000 3.080 1.000      3.639  23.000
  805 3.090 2.689  3.491 1.000 1.00000 3.090 1.000      3.703  23.000
  806 3.090 2.689  3.491 1.000 1.00000 3.090 1.000      2.872  23.000
  807 3.090 2.689  3.491 1.000 1.00000 3.090 1.000      9.816  23.000
  808 3.070 2.671  3.469 1.000 1.00000 3.070 1.000      2.705  23.000
  809 3.100 2.698  3.502 1.000 1.00000 3.100 1.000     10.091  23.000
  810 3.050 2.653  3.447 1.000 1.00000 3.050 1.000     13.627  23.000
  811 3.130 2.725  3.535 1.000 1.00000 3.130 1.000     21.950  23.000
  812 3.050 2.653  3.447 1.000 1.00000 3.050 1.000      9.821  23.000
  813 3.100 2.698  3.502 1.000 1.00000 3.100 1.000      9.770  23.000
  814 3.080 2.680  3.480 1.000 1.00000 3.080 1.000      4.060  23.000
  815 3.100 2.698  3.502 1.000 1.00000 3.100 1.000      9.900  23.000
  816 3.060 2.662  3.458 1.000 1.00000 3.060 1.000      9.068  23.000
  817 3.110 2.707  3.513 1.000 1.00000 3.110 1.000     11.319  23.000
  818 3.100 2.698  3.502 1.000 1.00000 3.100 1.000      5.214  23.000
  819 3.080 2.680  3.480 1.000 1.00000 3.080 1.000     10.030  23.000
  820 3.080 2.680  3.480 1.000 1.00000 3.080 1.000      6.151  23.000
  821 3.110 2.707  3.513 1.000 1.00000 3.110 1.000     13.706  23.000
  822 3.080 2.680  3.480 1.000 1.00000 3.080 1.000      3.572  23.000
  823 3.080 2.680  3.480 1.000 1.00000 3.080 1.000      5.944  23.000
  824 3.110 2.707  3.513 1.000 1.00000 3.110 1.000     11.092  23.000
  825 3.130 2.725  3.535 1.000 1.00000 3.130 1.000     14.311  23.000
  826 3.100 2.698  3.502 1.000 1.00000 3.100 1.000     30.769  23.000
  827 3.100 2.698  3.502 1.000 1.00000 3.100 1.000     15.460  23.000
  828 3.070 2.671  3.469 1.000 1.00000 3.070 1.000      2.115  23.000
  829 3.080 2.680  3.480 1.000 1.00000 3.080 1.000      7.304  23.000
  830 3.120 2.716  3.524 1.000 1.00000 3.120 1.000     15.392  23.000
  831 3.040 2.644  3.436 1.000 1.00000 3.040 1.000      3.738  23.000
  832 3.070 2.671  3.469 1.000 1.00000 3.070 1.000      3.691  23.000
  833 3.080 2.680  3.480 1.000 1.00000 3.080 1.000     12.909  23.000
  834 3.100 2.698  3.502 1.000 1.00000 3.100 1.000      7.397  23.000
  835 3.110 2.707  3.513 1.000 1.00000 3.110 1.000      4.927  23.000
  836 3.090 2.689  3.491 1.000 1.00000 3.090 1.000     20.041  23.000
  837 3.110 2.707  3.513 1.000 1.00000 3.110 1.000     13.891  23.000
  838 3.090 2.689  3.491 1.000 1.00000 3.090 1.000      6.683  23.000
  839 3.120 2.716  3.524 1.000 1.00000 3.120 1.000      6.084  23.000
  840 3.110 2.707  3.513 1.000 1.00000 3.110 1.000     12.124  23.000
  841 3.070 2.671  3.469 1.000 1.00000 3.070 1.000      2.832  23.000
  842 3.070 2.671  3.469 1.000 1.00000 3.070 1.000      9.046  23.000
  843 3.100 2.698  3.502 1.000 1.00000 3.100 1.000     10.605  23.000
  844 3.050 2.653  3.447 1.000 1.00000 3.050 1.000      2.223  23.000
  845 3.060 2.662  3.458 1.000 1.00000 3.060 1.000      4.383  23.000
  846 3.090 2.689  3.491 1.000 1.00000 3.090 1.000      8.759  23.000
  847 3.150 2.743  3.557 1.000 1.00000 3.150 1.000     11.865  23.000
  848 3.110 2.707  3.513 1.000 1.00000 3.110 1.000      8.941  23.000
  849 3.090 2.689  3.491 1.000 1.00000 3.090 1.000      3.090  23.000
  850 3.130 2.725  3.535 1.000 1.00000 3.130 1.000     10.825  23.000
  851 3.100 2.698  3.502 1.000 1.00000 3.100 1.000     35.782  23.000
  852 3.090 2.689  3.491 1.000 1.00000 3.090 1.000     15.380  23.000
  853 3.090 2.689  3.491 1.000 1.00000 3.090 1.000      3.984  23.000
  854 3.100 2.698  3.502 1.000 1.00000 3.100 1.000      8.874  23.000
  855 3.080 2.680  3.480 1.000 1.00000 3.080 1.000      4.812  23.000
  856 3.090 2.689  3.491 1.000 1.00000 3.090 1.000     11.981  23.000
  857 3.090 2.689  3.491 1.000 1.00000 3.090 1.000      5.007  23.000
  858 3.130 2.725  3.535 1.000 1.00000 3.130 1.000     15.324  23.000
  859 3.070 2.671  3.469 1.000 1.00000 3.070 1.000      6.038  23.000
  860 3.060 2.662  3.458 1.000 1.00000 3.060 1.000     26.244  23.000
  861 3.110 2.707  3.513 1.000 1.00000 3.110 1.000     10.604  23.000
  862 3.120 2.716  3.524 1.000 1.00000 3.120 1.000      6.326  23.000
  863 3.120 2.716  3.524 1.000 1.00000 3.120 1.000     14.206  23.000
  864 3.100 2.698  3.502 1.000 1.00000 3.100 1.000      6.358  23.000
  865 3.090 2.689  3.491 1.000 1.00000 3.090 1.000      3.435  23.000
  866 3.080 2.680  3.480 1.000 1.00000 3.080 1.000      8.831  23.000
  867 3.100 2.698  3.502 1.000 1.00000 3.100 1.000     12.427  23.000
  868 3.080 2.680  3.480 1.000 1.00000 3.080 1.000      7.053  23.000
  869 3.090 2.689  3.491 1.000 1.00000 3.090 1.000     20.641  23.000
  870 3.090 2.689  3.491 1.000 1.00000 3.090 1.000     20.043  23.000
  871 3.040 2.644  3.436 1.000 1.00000 3.040 1.000      6.727  23.000
  872 3.100 2.698  3.502 1.000 1.00000 3.100 1.000     21.238  23.000
  873 3.070 2.671  3.469 1.000 1.00000 3.070 1.000      2.966  23.000
  874 3.060 2.662  3.458 1.000 1.00000 3.060 1.000      9.807  23.000
  875 3.050 2.653  3.447 1.000 1.00000 3.050 1.000      9.301  23.000
  876 3.090 2.689  3.491 1.000 1.00000 3.090 1.000      3.520  23.000
  877 3.080 2.680  3.480 1.000 1.00000 3.080 1.000      6.025  23.000
  878 3.040 2.644  3.436 1.000 1.00000 3.040 1.000      2.778  23.000
  879 3.110 2.707  3.513 1.000 1.00000 3.110 1.000     22.145  23.000
  880 3.100 2.698  3.502 1.000 1.00000 3.100 1.000     15.573  23.000
  881 3.100 2.698  3.502 1.000 1.00000 3.100 1.000     20.526  23.000
  882 3.060 2.662  3.458 1.000 1.00000 3.060 1.000     19.245  23.000
  883 3.060 2.662  3.458 1.000 1.00000 3.060 1.000     15.122  23.000
  884 3.120 2.716  3.524 1.000 1.00000 3.120 1.000     14.183  23.000
  885 3.090 2.689  3.491 1.000 1.00000 3.090 1.000      4.756  23.000
  886 3.060 2.662  3.458 1.000 1.00000 3.060 1.000      5.091  23.000
  887 3.080 2.680  3.480 1.000 1.00000 3.080 1.000     12.187  23.000
  888 3.100 2.698  3.502 1.000 1.00000 3.100 1.000     12.390  23.000
  889 3.080 2.680  3.480 1.000 1.00000 3.080 1.000     35.585  23.000
  890 3.080 2.680  3.480 1.000 1.00000 3.080 1.000      3.610  23.000
  891 3.110 2.707  3.513 1.000 1.00000 3.110 1.000     12.231  23.000
  892 3.080 2.680  3.480 1.000 1.00000 3.080 1.000      6.996  23.000
  893 3.090 2.689  3.491 1.000 1.00000 3.090 1.000     21.704  23.000
  894 3.060 2.662  3.458 1.000 1.00000 3.060 1.000     14.279  23.000
  895 3.090 2.689  3.491 1.000 1.00000 3.090 1.000      8.561  23.000
  896 3.110 2.707  3.513 1.000 1.00000 3.110 1.000      5.208  23.000
  897 3.130 2.725  3.535 1.000 1.00000 3.130 1.000      7.313  23.000
  898 3.110 2.707  3.513 1.000 1.00000 3.110 1.000      6.604  23.000
  899 3.100 2.698  3.502 1.000 1.00000 3.100 1.000      4.529  23.000
  900 3.110 2.707  3.513 1.000 1.00000 3.110 1.000      9.815  23.000
  901 3.100 2.698  3.502 1.000 1.00000 3.100 1.000     23.918  23.000
  902 3.070 2.671  3.469 1.000 1.00000 3.070 1.000      2.782  23.000
  903 3.100 2.698  3.502 1.000 1.00000 3.100 1.000     23.359  23.000
  904 3.070 2.671  3.469 1.000 1.00000 3.070 1.000      4.249  23.000
  905 3.080 2.680  3.480 1.000 1.00000 3.080 1.000      3.573  23.000
  906 3.060 2.662  3.458 1.000 1.00000 3.060 1.000     13.998  23.000
  907 3.070 2.671  3.469 1.000 1.00000 3.070 1.000     12.063  23.000
  908 3.080 2.680  3.480 1.000 1.00000 3.080 1.000      5.918  23.000
  909 3.090 2.689  3.491 1.000 1.00000 3.090 1.000      3.498  23.000
  910 3.090 2.689  3.491 1.000 1.00000 3.090 1.000      8.071  23.000
  911 3.100 2.698  3.502 1.000 1.00000 3.100 1.000      8.521  23.000
  912 3.090 2.689  3.491 1.000 1.00000 3.090 1.000      4.855  23.000
  913 3.100 2.698  3.502 1.000 1.00000 3.100 1.000      6.046  23.000
  914 3.080 2.680  3.480 1.000 1.00000 3.080 1.000      6.394  23.000
  915 3.130 2.725  3.535 1.000 1.00000 3.130 1.000     16.544  23.000
  916 3.100 2.698  3.502 1.000 1.00000 3.100 1.000      6.938  23.000
  917 3.080 2.680  3.480 1.000 1.00000 3.080 1.000      4.155  23.000
  918 3.140 2.734  3.546 1.000 1.00000 3.140 1.000     47.213  23.000
  919 3.120 2.716  3.524 1.000 1.00000 3.120 1.000     20.301  23.000
  920 3.080 2.680  3.480 1.000 1.00000 3.080 1.000      3.329  23.000
  921 3.110 2.707  3.513 1.000 1.00000 3.110 1.000      6.130  23.000
  922 3.100 2.698  3.502 1.000 1.00000 3.100 1.000      8.970  23.000
  923 3.110 2.707  3.513 1.000 1.00000 3.110 1.000      7.501  23.000
  924 3.060 2.662  3.458 1.000 1.00000 3.060 1.000     18.165  23.000
  925 3.070 2.671  3.469 1.000 1.00000 3.070 1.000      1.794  23.000
  926 3.100 2.698  3.502 1.000 1.00000 3.100 1.000      6.448  23.000
  927 3.080 2.680  3.480 1.000 1.00000 3.080 1.000      3.328  23.000
  928 3.070 2.671  3.469 1.000 1.00000 3.070 1.000      4.193  23.000
  929 3.070 2.671  3.469 1.000 1.00000 3.070 1.000     11.978  23.000
  930 3.130 2.725  3.535 1.000 1.00000 3.130 1.000     25.664  23.000
  931 3.080 2.680  3.480 1.000 1.00000 3.080 1.000     15.456  23.000
  932 3.110 2.707  3.513 1.000 1.00000 3.110 1.000      6.970  23.000
  933 3.070 2.671  3.469 1.000 1.00000 3.070 1.000      5.609  23.000
  934 3.110 2.707  3.513 1.000 1.00000 3.110 1.000     19.621  23.000
  935 3.110 2.707  3.513 1.000 1.00000 3.110 1.000     19.201  23.000
  936 3.090 2.689  3.491 1.000 1.00000 3.090 1.000      7.030  23.000
  937 3.090 2.689  3.491 1.000 1.00000 3.090 1.000      8.454  23.000
  938 3.120 2.716  3.524 1.000 1.00000 3.120 1.000     10.995  23.000
  939 3.140 2.734  3.546 1.000 1.00000 3.140 1.000     13.725  23.000
  940 3.100 2.698  3.502 1.000 1.00000 3.100 1.000      5.775  23.000
  941 3.060 2.662  3.458 1.000 1.00000 3.060 1.000      2.485  23.000
  942 3.120 2.716  3.524 1.000 1.00000 3.120 1.000      7.373  23.000
  943 3.060 2.662  3.458 1.000 1.00000 3.060 1.000      1.257  23.000
  944 3.100 2.698  3.502 1.000 1.00000 3.100 1.000      6.337  23.000
  945 3.070 2.671  3.469 1.000 1.00000 3.070 1.000      2.687  23.000
  946 3.070 2.671  3.469 1.000 1.00000 3.070 1.000      4.204  23.000
  947 3.040 2.644  3.436 1.000 1.00000 3.040 1.000      6.611  23.000
  948 3.070 2.671  3.469 1.000 1.00000 3.070 1.000     21.502  23.000
  949 3.100 2.698  3.502 1.000 1.00000 3.100 1.000      6.722  23.000
  950 3.100 2.698  3.502 1.000 1.00000 3.100 1.000      3.894  23.000
  951 3.070 2.671  3.469 1.000 1.00000 3.070 1.000      3.635  23.000
  952 3.140 2.734  3.546 1.000 1.00000 3.140 1.000     10.773  23.000
  953 3.060 2.662  3.458 1.000 1.00000 3.060 1.000     18.480  23.000
  954 3.070 2.671  3.469 1.000 1.00000 3.070 1.000      2.984  23.000
  955 3.100 2.698  3.502 1.000 1.00000 3.100 1.000      7.431  23.000
  956 3.090 2.689  3.491 1.000 1.00000 3.090 1.000      2.930  23.000
  957 3.090 2.689  3.491 1.000 1.00000 3.090 1.000      4.419  23.000
  958 3.140 2.734  3.546 1.000 1.00000 3.140 1.000     18.993  23.000
  959 3.130 2.725  3.535 1.000 1.00000 3.130 1.000     16.165  23.000
  960 3.090 2.689  3.491 1.000 1.00000 3.090 1.000      7.742  23.000
  961 3.090 2.689  3.491 1.000 1.00000 3.090 1.000      6.158  23.000
  962 3.090 2.689  3.491 1.000 1.00000 3.090 1.000     11.037  23.000
  963 3.090 2.689  3.491 1.000 1.00000 3.090 1.000      6.312  23.000
  964 3.100 2.698  3.502 1.000 1.00000 3.100 1.000     17.957  23.000
  965 3.110 2.707  3.513 1.000 1.00000 3.110 1.000     30.125  23.000
  966 3.080 2.680  3.480 1.000 1.00000 3.080 1.000      5.903  23.000
  967 3.100 2.698  3.502 1.000 1.00000 3.100 1.000      6.511  23.000
  968 3.090 2.689  3.491 1.000 1.00000 3.090 1.000     23.856  23.000
  969 3.070 2.671  3.469 1.000 1.00000 3.070 1.000      2.530  23.000
  970 3.070 2.671  3.469 1.000 1.00000 3.070 1.000      2.885  23.000
  971 3.080 2.680  3.480 1.000 1.00000 3.080 1.000     12.744  23.000
  972 3.090 2.689  3.491 1.000 1.00000 3.090 1.000      6.266  23.000
  973 3.110 2.707  3.513 1.000 1.00000 3.110 1.000     12.295  23.000
  974 3.100 2.698  3.502 1.000 1.00000 3.100 1.000      5.073  23.000
  975 3.060 2.662  3.458 1.000 1.00000 3.060 1.000      3.839  23.000
  976 3.110 2.707  3.513 1.000 1.00000 3.110 1.000      7.175  23.000
  977 3.070 2.671  3.469 1.000 1.00000 3.070 1.000     29.704  23.000
  978 3.080 2.680  3.480 1.000 1.00000 3.080 1.000     12.123  23.000
  979 3.090 2.689  3.491 1.000 1.00000 3.090 1.000      9.242  23.000
  980 3.060 2.662  3.458 1.000 1.00000 3.060 1.000     14.963  23.000
  981 3.100 2.698  3.502 1.000 1.00000 3.100 1.000     11.362  23.000
  982 3.090 2.689  3.491 1.000 1.00000 3.090 1.000     19.866  23.000
  983 3.090 2.689  3.491 1.000 1.00000 3.090 1.000     19.595  23.000
  984 3.110 2.707  3.513 1.000 1.00000 3.110 1.000      7.335  23.000
  985 3.060 2.662  3.458 1.000 1.00000 3.060 1.000      8.885  23.000
  986 3.070 2.671  3.469 1.000 1.00000 3.070 1.000     13.003  23.000
  987 3.090 2.689  3.491 1.000 1.00000 3.090 1.000      6.671  23.000
  988 3.070 2.671  3.469 1.000 1.00000 3.070 1.000      3.271  23.000
  989 3.110 2.707  3.513 1.000 1.00000 3.110 1.000      9.028  23.000
  990 3.070 2.671  3.469 1.000 1.00000 3.070 1.000      8.056  23.000
  991 3.100 2.698  3.502 1.000 1.00000 3.100 1.000     10.590  23.000
  992 3.100 2.698  3.502 1.000 1.00000 3.100 1.000     10.200  23.000
  993 3.090 2.689  3.491 1.000 1.00000 3.090 1.000      3.886  23.000
  994 3.090 2.689  3.491 1.000 1.00000 3.090 1.000      5.313  23.000
  995 3.090 2.689  3.491 1.000 1.00000 3.090 1.000     15.735  23.000
  996 3.080 2.680  3.480 1.000 1.00000 3.080 1.000      7.563  23.000
  997 3.060 2.662  3.458 1.000 1.00000 3.060 1.000     18.553  23.000
  998 3.070 2.671  3.469 1.000 1.00000 3.070 1.000      3.067  23.000
  999 3.100 2.698  3.502 1.000 1.00000 3.100 1.000     17.132  23.000
 1000 3.090 2.689  3.491 1.000 1.00000 3.090 1.000      7.157  23.000
 1001 3.090 2.689  3.491 1.000 1.00000 3.090 1.000      5.121  23.000
 1002 3.080 2.680  3.480 1.000 1.00000 3.080 1.000      4.891  23.000
 1003 3.130 2.725  3.535 1.000 1.00000 3.130 1.000     10.867  23.000
 1004 3.080 2.680  3.480 1.000 1.00000 3.080 1.000      4.724  23.000
 1005 3.070 2.671  3.469 1.000 1.00000 3.070 1.000      3.441  23.000
 1006 3.080 2.680  3.480 1.000 1.00000 3.080 1.000      6.903  23.000
 1007 3.130 2.725  3.535 1.000 1.00000 3.130 1.000      8.307  23.000
 1008 3.050 2.653  3.447 1.000 1.00000 3.050 1.000     15.835  23.000
 1009 3.080 2.680  3.480 1.000 1.00000 3.080 1.000      2.926  23.000
 1010 3.090 2.689  3.491 1.000 1.00000 3.090 1.000      8.669  23.000
 1011 3.110 2.707  3.513 1.000 1.00000 3.110 1.000     17.728  23.000
 1012 3.110 2.707  3.513 1.000 1.00000 3.110 1.000      6.514  23.000
 1013 3.120 2.716  3.524 1.000 1.00000 3.120 1.000     13.012  23.000
 1014 3.140 2.734  3.546 1.000 1.00000 3.140 1.000     14.908  23.000
 1015 3.110 2.707  3.513 1.000 1.00000 3.110 1.000      5.833  23.000
 1016 3.090 2.689  3.491 1.000 1.00000 3.090 1.000      7.037  23.000
 1017 3.080 2.680  3.480 1.000 1.00000 3.080 1.000      4.978  23.000
 1018 3.110 2.707  3.513 1.000 1.00000 3.110 1.000      4.955  23.000
 1019 3.080 2.680  3.480 1.000 1.00000 3.080 1.000      9.799  23.000
 1020 3.060 2.662  3.458 1.000 1.00000 3.060 1.000     29.601  23.000
 1021 3.060 2.662  3.458 1.000 1.00000 3.060 1.000      6.121  23.000
 1022 3.100 2.698  3.502 1.000 1.00000 3.100 1.000     17.577  23.000
 1023 3.070 2.671  3.469 1.000 1.00000 3.070 1.000     15.053  23.000
 1024 3.130 2.725  3.535 1.000 1.00000 3.130 1.000     10.991  23.000
 1025 3.110 2.707  3.513 1.000 1.00000 3.110 1.000      6.881  23.000
 1026 3.080 2.680  3.480 1.000 1.00000 3.080 1.000      2.623  23.000
 1027 3.120 2.716  3.524 1.000 1.00000 3.120 1.000      7.767  23.000
 1028 3.090 2.689  3.491 1.000 1.00000 3.090 1.000      6.555  23.000
 1029 3.080 2.680  3.480 1.000 1.00000 3.080 1.000      5.695  23.000
 1030 3.080 2.680  3.480 1.000 1.00000 3.080 1.000     26.902  23.000
 1031 3.090 2.689  3.491 1.000 1.00000 3.090 1.000     18.062  23.000
 1032 3.060 2.662  3.458 1.000 1.00000 3.060 1.000     14.941  23.000
 1033 3.080 2.680  3.480 1.000 1.00000 3.080 1.000      2.531  23.000
 1034 3.060 2.662  3.458 1.000 1.00000 3.060 1.000      5.000  23.000
 1035 3.130 2.725  3.535 1.000 1.00000 3.130 1.000     10.175  23.000
 1036 3.110 2.707  3.513 1.000 1.00000 3.110 1.000     20.011  23.000
 1037 3.090 2.689  3.491 1.000 1.00000 3.090 1.000     14.108  23.000
 1038 3.090 2.689  3.491 1.000 1.00000 3.090 1.000      4.543  23.000
 1039 3.050 2.653  3.447 1.000 1.00000 3.050 1.000      2.174  23.000
 1040 3.090 2.689  3.491 1.000 1.00000 3.090 1.000     12.960  23.000
 1041 3.070 2.671  3.469 1.000 1.00000 3.070 1.000      4.730  23.000
 1042 3.100 2.698  3.502 1.000 1.00000 3.100 1.000     32.940  23.000
 1043 3.120 2.716  3.524 1.000 1.00000 3.120 1.000      6.907  23.000
 1044 3.090 2.689  3.491 1.000 1.00000 3.090 1.000     15.640  23.000
 1045 3.130 2.725  3.535 1.000 1.00000 3.130 1.000     11.004  23.000
 1046 3.090 2.689  3.491 1.000 1.00000 3.090 1.000      5.053  23.000
 1047 3.050 2.653  3.447 1.000 1.00000 3.050 1.000      2.599  23.000
 1048 3.080 2.680  3.480 1.000 1.00000 3.080 1.000     18.392  23.000
 1049 3.070 2.671  3.469 1.000 1.00000 3.070 1.000      8.452  23.000
 1050 3.090 2.689  3.491 1.000 1.00000 3.090 1.000      5.420  23.000
 1051 3.100 2.698  3.502 1.000 1.00000 3.100 1.000     29.748  23.000
 1052 3.100 2.698  3.502 1.000 1.00000 3.100 1.000      9.356  23.000
 1053 3.070 2.671  3.469 1.000 1.00000 3.070 1.000      1.617  23.000
 1054 3.100 2.698  3.502 1.000 1.00000 3.100 1.000     14.150  23.000
 1055 3.050 2.653  3.447 1.000 1.00000 3.050 1.000      2.035  23.000
 1056 3.120 2.716  3.524 1.000 1.00000 3.120 1.000      7.698  23.000
 1057 3.100 2.698  3.502 1.000 1.00000 3.100 1.000     11.928  23.000
 1058 3.130 2.725  3.535 1.000 1.00000 3.130 1.000     45.708  23.000
 1059 3.110 2.707  3.513 1.000 1.00000 3.110 1.000     12.366  23.000
 1060 3.080 2.680  3.480 1.000 1.00000 3.080 1.000      3.918  23.000
 1061 3.120 2.716  3.524 1.000 1.00000 3.120 1.000     37.405  23.000
 1062 3.120 2.716  3.524 1.000 1.00000 3.120 1.000      8.801  23.000
 1063 3.100 2.698  3.502 1.000 1.00000 3.100 1.000      4.253  23.000
 1064 3.090 2.689  3.491 1.000 1.00000 3.090 1.000     21.267  23.000
 1065 3.130 2.725  3.535 1.000 1.00000 3.130 1.000     11.514  23.000
 1066 3.080 2.680  3.480 1.000 1.00000 3.080 1.000     39.293  23.000
 1067 3.050 2.653  3.447 1.000 1.00000 3.050 1.000      1.906  23.000
 1068 3.110 2.707  3.513 1.000 1.00000 3.110 1.000     17.344  23.000
 1069 3.090 2.689  3.491 1.000 1.00000 3.090 1.000     17.003  23.000
 1070 3.100 2.698  3.502 1.000 1.00000 3.100 1.000      6.748  23.000
 1071 3.050 2.653  3.447 1.000 1.00000 3.050 1.000      2.274  23.000
 1072 3.120 2.716  3.524 1.000 1.00000 3.120 1.000     24.532  23.000
 1073 3.060 2.662  3.458 1.000 1.00000 3.060 1.000      2.346  23.000
 1074 3.090 2.689  3.491 1.000 1.00000 3.090 1.000     11.153  23.000
 1075 3.050 2.653  3.447 1.000 1.00000 3.050 1.000      4.166  23.000
 1076 3.110 2.707  3.513 1.000 1.00000 3.110 1.000      8.751  23.000
 1077 3.110 2.707  3.513 1.000 1.00000 3.110 1.000     20.350  23.000
 1078 3.070 2.671  3.469 1.000 1.00000 3.070 1.000      2.471  23.000
 1079 3.120 2.716  3.524 1.000 1.00000 3.120 1.000     11.873  23.000
 1080 3.080 2.680  3.480 1.000 1.00000 3.080 1.000      6.290  23.000
 1081 3.080 2.680  3.480 1.000 1.00000 3.080 1.000      2.768  23.000
 1082 3.080 2.680  3.480 1.000 1.00000 3.080 1.000     16.327  23.000
 1083 3.080 2.680  3.480 1.000 1.00000 3.080 1.000      8.259  23.000
 1084 3.080 2.680  3.480 1.000 1.00000 3.080 1.000      8.882  23.000
 1085 3.060 2.662  3.458 1.000 1.00000 3.060 1.000      2.904  23.000
 1086 3.070 2.671  3.469 1.000 1.00000 3.070 1.000      8.817  23.000
 1087 3.080 2.680  3.480 1.000 1.00000 3.080 1.000      5.385  23.000
 1088 3.090 2.689  3.491 1.000 1.00000 3.090 1.000     14.731  23.000
 1089 3.090 2.689  3.491 1.000 1.00000 3.090 1.000      3.812  23.000
 1090 3.090 2.689  3.491 1.000 1.00000 3.090 1.000      3.881  23.000
 1091 3.080 2.680  3.480 1.000 1.00000 3.080 1.000      4.224  23.000
 1092 3.100 2.698  3.502 1.000 1.00000 3.100 1.000      6.951  23.000
 1093 3.100 2.698  3.502 1.000 1.00000 3.100 1.000      6.251  23.000
 1094 3.050 2.653  3.447 1.000 1.00000 3.050 1.000      1.227  23.000
 1095 3.060 2.662  3.458 1.000 1.00000 3.060 1.000      5.113  23.000
 1096 3.100 2.698  3.502 1.000 1.00000 3.100 1.000     30.951  23.000
 1097 3.060 2.662  3.458 1.000 1.00000 3.060 1.000      4.115  23.000
 1098 3.120 2.716  3.524 1.000 1.00000 3.120 1.000     26.036  23.000
 1099 3.090 2.689  3.491 1.000 1.00000 3.090 1.000      5.987  23.000
 1100 3.120 2.716  3.524 1.000 1.00000 3.120 1.000     11.375  23.000
 1101 3.110 2.707  3.513 1.000 1.00000 3.110 1.000      7.119  23.000
 1102 3.090 2.689  3.491 1.000 1.00000 3.090 1.000      4.686  23.000
 1103 3.040 2.644  3.436 1.000 1.00000 3.040 1.000      7.885  23.000
 1104 3.110 2.707  3.513 1.000 1.00000 3.110 1.000     34.870  23.000
 1105 3.080 2.680  3.480 1.000 1.00000 3.080 1.000     23.388  23.000
 1106 3.120 2.716  3.524 1.000 1.00000 3.120 1.000      9.288  23.000
 1107 3.060 2.662  3.458 1.000 1.00000 3.060 1.000     10.890  23.000
 1108 3.090 2.689  3.491 1.000 1.00000 3.090 1.000     11.970  23.000
 1109 3.110 2.707  3.513 1.000 1.00000 3.110 1.000      6.925  23.000
 1110 3.080 2.680  3.480 1.000 1.00000 3.080 1.000      6.016  23.000
 1111 3.090 2.689  3.491 1.000 1.00000 3.090 1.000      3.154  23.000
 1112 3.060 2.662  3.458 1.000 1.00000 3.060 1.000      2.636  23.000
 1113 3.120 2.716  3.524 1.000 1.00000 3.120 1.000     12.991  23.000
 1114 3.060 2.662  3.458 1.000 1.00000 3.060 1.000     11.475  23.000
 1115 3.090 2.689  3.491 1.000 1.00000 3.090 1.000     10.827  23.000
 1116 3.090 2.689  3.491 1.000 1.00000 3.090 1.000     12.506  23.000
 1117 3.090 2.689  3.491 1.000 1.00000 3.090 1.000      7.043  23.000
 1118 3.080 2.680  3.480 1.000 1.00000 3.080 1.000     12.328  23.000
 1119 3.090 2.689  3.491 1.000 1.00000 3.090 1.000      3.423  23.000
 1120 3.110 2.707  3.513 1.000 1.00000 3.110 1.000      5.944  23.000
 1121 3.090 2.689  3.491 1.000 1.00000 3.090 1.000      4.013  23.000
 1122 3.080 2.680  3.480 1.000 1.00000 3.080 1.000     11.530  23.000
 1123 3.110 2.707  3.513 1.000 1.00000 3.110 1.000      9.229  23.000
 1124 3.100 2.698  3.502 1.000 1.00000 3.100 1.000     16.127  23.000
 1125 3.100 2.698  3.502 1.000 1.00000 3.100 1.000     36.825  23.000
 1126 3.080 2.680  3.480 1.000 1.00000 3.080 1.000      4.485  23.000
 1127 3.080 2.680  3.480 1.000 1.00000 3.080 1.000     12.879  23.000
 1128 3.100 2.698  3.502 1.000 1.00000 3.100 1.000     10.907  23.000
 1129 3.130 2.725  3.535 1.000 1.00000 3.130 1.000     19.037  23.000
 1130 3.090 2.689  3.491 1.000 1.00000 3.090 1.000      9.580  23.000
 1131 3.100 2.698  3.502 1.000 1.00000 3.100 1.000      8.657  23.000
 1132 3.070 2.671  3.469 1.000 1.00000 3.070 1.000     18.015  23.000
 1133 3.100 2.698  3.502 1.000 1.00000 3.100 1.000     15.451  23.000
 1134 3.050 2.653  3.447 1.000 1.00000 3.050 1.000     13.834  23.000
 1135 3.100 2.698  3.502 1.000 1.00000 3.100 1.000     11.669  23.000
 1136 3.050 2.653  3.447 1.000 1.00000 3.050 1.000      2.811  23.000
 1137 3.090 2.689  3.491 1.000 1.00000 3.090 1.000      8.662  23.000
 1138 3.080 2.680  3.480 1.000 1.00000 3.080 1.000     19.820  23.000
 1139 3.090 2.689  3.491 1.000 1.00000 3.090 1.000      7.474  23.000
 1140 3.100 2.698  3.502 1.000 1.00000 3.100 1.000      7.346  23.000
 1141 3.080 2.680  3.480 1.000 1.00000 3.080 1.000     12.180  23.000
 1142 3.050 2.653  3.447 1.000 1.00000 3.050 1.000     11.528  23.000
 1143 3.080 2.680  3.480 1.000 1.00000 3.080 1.000      5.638  23.000
 1144 3.090 2.689  3.491 1.000 1.00000 3.090 1.000     19.485  23.000
 1145 3.070 2.671  3.469 1.000 1.00000 3.070 1.000      3.399  23.000
 1146 3.100 2.698  3.502 1.000 1.00000 3.100 1.000      4.646  23.000
 1147 3.110 2.707  3.513 1.000 1.00000 3.110 1.000     23.512  23.000
 1148 3.110 2.707  3.513 1.000 1.00000 3.110 1.000      7.463  23.000
 1149 3.060 2.662  3.458 1.000 1.00000 3.060 1.000     11.660  23.000
 1150 3.090 2.689  3.491 1.000 1.00000 3.090 1.000     19.022  23.000
 1151 3.060 2.662  3.458 1.000 1.00000 3.060 1.000      6.644  23.000
 1152 3.050 2.653  3.447 1.000 1.00000 3.050 1.000      3.581  23.000
 1153 3.100 2.698  3.502 1.000 1.00000 3.100 1.000      7.201  23.000
 1154 3.070 2.671  3.469 1.000 1.00000 3.070 1.000      2.184  23.000
 1155 3.060 2.662  3.458 1.000 1.00000 3.060 1.000      1.854  23.000
 1156 3.070 2.671  3.469 1.000 1.00000 3.070 1.000      3.637  23.000
 1157 3.090 2.689  3.491 1.000 1.00000 3.090 1.000     26.751  23.000
 1158 3.080 2.680  3.480 1.000 1.00000 3.080 1.000      4.158  23.000
 1159 3.070 2.671  3.469 1.000 1.00000 3.070 1.000      7.521  23.000
 1160 3.110 2.707  3.513 1.000 1.00000 3.110 1.000     14.730  23.000
 1161 3.100 2.698  3.502 1.000 1.00000 3.100 1.000     12.617  23.000
 1162 3.070 2.671  3.469 1.000 1.00000 3.070 1.000      3.890  23.000
 1163 3.080 2.680  3.480 1.000 1.00000 3.080 1.000      4.361  23.000
 1164 3.090 2.689  3.491 1.000 1.00000 3.090 1.000     13.854  23.000
 1165 3.100 2.698  3.502 1.000 1.00000 3.100 1.000     19.726  23.000
 1166 3.080 2.680  3.480 1.000 1.00000 3.080 1.000      2.439  23.000
 1167 3.060 2.662  3.458 1.000 1.00000 3.060 1.000      1.684  23.000
 1168 3.070 2.671  3.469 1.000 1.00000 3.070 1.000      4.480  23.000
 1169 3.090 2.689  3.491 1.000 1.00000 3.090 1.000      8.896  23.000
 1170 3.060 2.662  3.458 1.000 1.00000 3.060 1.000      5.770  23.000
 1171 3.070 2.671  3.469 1.000 1.00000 3.070 1.000      4.852  23.000
 1172 3.060 2.662  3.458 1.000 1.00000 3.060 1.000      3.800  23.000
 1173 3.060 2.662  3.458 1.000 1.00000 3.060 1.000     10.045  23.000
 1174 3.080 2.680  3.480 1.000 1.00000 3.080 1.000      3.834  23.000
 1175 3.070 2.671  3.469 1.000 1.00000 3.070 1.000      8.092  23.000
 1176 3.060 2.662  3.458 1.000 1.00000 3.060 1.000      2.975  23.000
 1177 3.120 2.716  3.524 1.000 1.00000 3.120 1.000     18.852  23.000
 1178 3.130 2.725  3.535 1.000 1.00000 3.130 1.000     16.968  23.000
 1179 3.070 2.671  3.469 1.000 1.00000 3.070 1.000      6.125  23.000
 1180 3.070 2.671  3.469 1.000 1.00000 3.070 1.000      2.328  23.000
 1181 3.060 2.662  3.458 1.000 1.00000 3.060 1.000      2.274  23.000
 1182 3.050 2.653  3.447 1.000 1.00000 3.050 1.000      9.655  23.000
 1183 3.090 2.689  3.491 1.000 1.00000 3.090 1.000      3.214  23.000
 1184 3.100 2.698  3.502 1.000 1.00000 3.100 1.000      5.760  23.000
 1185 3.120 2.716  3.524 1.000 1.00000 3.120 1.000     18.814  23.000
 1186 3.090 2.689  3.491 1.000 1.00000 3.090 1.000      8.280  23.000
 1187 3.080 2.680  3.480 1.000 1.00000 3.080 1.000     10.339  23.000
 1188 3.140 2.734  3.546 1.000 1.00000 3.140 1.000     13.619  23.000
 1189 3.110 2.707  3.513 1.000 1.00000 3.110 1.000     22.261  23.000
 1190 3.100 2.698  3.502 1.000 1.00000 3.100 1.000     13.776  23.000
 1191 3.120 2.716  3.524 1.000 1.00000 3.120 1.000      6.630  23.000
 1192 3.060 2.662  3.458 1.000 1.00000 3.060 1.000      8.066  23.000
 1193 3.090 2.689  3.491 1.000 1.00000 3.090 1.000      3.615  23.000
 1194 3.110 2.707  3.513 1.000 1.00000 3.110 1.000     14.297  23.000
 1195 3.090 2.689  3.491 1.000 1.00000 3.090 1.000     22.645  23.000
 1196 3.070 2.671  3.469 1.000 1.00000 3.070 1.000     22.844  23.000
 1197 3.080 2.680  3.480 1.000 1.00000 3.080 1.000      6.792  23.000
 1198 3.110 2.707  3.513 1.000 1.00000 3.110 1.000      5.028  23.000
 1199 3.100 2.698  3.502 1.000 1.00000 3.100 1.000      9.417  23.000
 1200 3.100 2.698  3.502 1.000 1.00000 3.100 1.000      4.880  23.000
 1201 3.070 2.671  3.469 1.000 1.00000 3.070 1.000      7.191  23.000
 1202 3.120 2.716  3.524 1.000 1.00000 3.120 1.000     15.663  23.000
 1203 3.090 2.689  3.491 1.000 1.00000 3.090 1.000      5.633  23.000
 1204 3.080 2.680  3.480 1.000 1.00000 3.080 1.000      3.756  23.000
 1205 3.120 2.716  3.524 1.000 1.00000 3.120 1.000      9.753  23.000
 1206 3.060 2.662  3.458 1.000 1.00000 3.060 1.000      8.105  23.000
 1207 3.060 2.662  3.458 1.000 1.00000 3.060 1.000      6.755  23.000
 1208 3.110 2.707  3.513 1.000 1.00000 3.110 1.000      4.864  23.000
 1209 3.080 2.680  3.480 1.000 1.00000 3.080 1.000      8.705  23.000
 1210 3.050 2.653  3.447 1.000 1.00000 3.050 1.000      3.100  23.000
 1211 3.090 2.689  3.491 1.000 1.00000 3.090 1.000     12.446  23.000
 1212 3.130 2.725  3.535 1.000 1.00000 3.130 1.000     11.078  23.000
 1213 3.060 2.662  3.458 1.000 1.00000 3.060 1.000      4.420  23.000
 1214 3.040 2.644  3.436 1.000 1.00000 3.040 1.000      8.675  23.000
 1215 3.070 2.671  3.469 1.000 1.00000 3.070 1.000      3.375  23.000
 1216 3.050 2.653  3.447 1.000 1.00000 3.050 1.000      0.886  23.000
 1217 3.090 2.689  3.491 1.000 1.00000 3.090 1.000      4.476  23.000
 1218 3.080 2.680  3.480 1.000 1.00000 3.080 1.000     11.398  23.000
 1219 3.100 2.698  3.502 1.000 1.00000 3.100 1.000     19.776  23.000
 1220 3.110 2.707  3.513 1.000 1.00000 3.110 1.000     19.717  23.000
 1221 3.130 2.725  3.535 1.000 1.00000 3.130 1.000      9.424  23.000
 1222 3.080 2.680  3.480 1.000 1.00000 3.080 1.000     19.868  23.000
 1223 3.070 2.671  3.469 1.000 1.00000 3.070 1.000      5.282  23.000
 1224 3.090 2.689  3.491 1.000 1.00000 3.090 1.000      4.910  23.000
 1225 3.080 2.680  3.480 1.000 1.00000 3.080 1.000      4.245  23.000
 1226 3.110 2.707  3.513 1.000 1.00000 3.110 1.000      8.937  23.000
 1227 3.080 2.680  3.480 1.000 1.00000 3.080 1.000      3.527  23.000
 1228 3.080 2.680  3.480 1.000 1.00000 3.080 1.000      4.661  23.000
 1229 3.090 2.689  3.491 1.000 1.00000 3.090 1.000      3.947  23.000
 1230 3.110 2.707  3.513 1.000 1.00000 3.110 1.000     25.393  23.000
 1231 3.070 2.671  3.469 1.000 1.00000 3.070 1.000      3.434  23.000
 1232 3.070 2.671  3.469 1.000 1.00000 3.070 1.000      3.751  23.000
 1233 3.080 2.680  3.480 1.000 1.00000 3.080 1.000      9.795  23.000
 1234 3.090 2.689  3.491 1.000 1.00000 3.090 1.000     16.323  23.000
 1235 3.090 2.689  3.491 1.000 1.00000 3.090 1.000     18.079  23.000
 1236 3.070 2.671  3.469 1.000 1.00000 3.070 1.000      6.351  23.000
 1237 3.090 2.689  3.491 1.000 1.00000 3.090 1.000      3.943  23.000
 1238 3.100 2.698  3.502 1.000 1.00000 3.100 1.000     22.102  23.000
 1239 3.060 2.662  3.458 1.000 1.00000 3.060 1.000      1.271  23.000
 1240 3.080 2.680  3.480 1.000 1.00000 3.080 1.000     12.970  23.000
 1241 3.080 2.680  3.480 1.000 1.00000 3.080 1.000     14.843  23.000
 1242 3.090 2.689  3.491 1.000 1.00000 3.090 1.000     10.311  23.000
 1243 3.110 2.707  3.513 1.000 1.00000 3.110 1.000     16.303  23.000
 1244 3.080 2.680  3.480 1.000 1.00000 3.080 1.000     16.119  23.000
 1245 3.100 2.698  3.502 1.000 1.00000 3.100 1.000     25.946  23.000
 1246 3.100 2.698  3.502 1.000 1.00000 3.100 1.000      6.692  23.000
 1247 3.110 2.707  3.513 1.000 1.00000 3.110 1.000     20.047  23.000
 1248 3.080 2.680  3.480 1.000 1.00000 3.080 1.000      5.367  23.000
 1249 3.110 2.707  3.513 1.000 1.00000 3.110 1.000      8.542  23.000
 1250 3.100 2.698  3.502 1.000 1.00000 3.100 1.000      6.818  23.000
 1251 3.070 2.671  3.469 1.000 1.00000 3.070 1.000      3.591  23.000
 1252 3.120 2.716  3.524 1.000 1.00000 3.120 1.000      7.225  23.000
 1253 3.120 2.716  3.524 1.000 1.00000 3.120 1.000     39.342  23.000
 1254 3.110 2.707  3.513 1.000 1.00000 3.110 1.000      4.828  23.000
 1255 3.080 2.680  3.480 1.000 1.00000 3.080 1.000     13.667  23.000
 1256 3.100 2.698  3.502 1.000 1.00000 3.100 1.000     24.456  23.000
 1257 3.070 2.671  3.469 1.000 1.00000 3.070 1.000      3.399  23.000
 1258 3.080 2.680  3.480 1.000 1.00000 3.080 1.000      9.071  23.000
 1259 3.090 2.689  3.491 1.000 1.00000 3.090 1.000     14.086  23.000
 1260 3.120 2.716  3.524 1.000 1.00000 3.120 1.000      9.951  23.000
 1261 3.100 2.698  3.502 1.000 1.00000 3.100 1.000     12.883  23.000
 1262 3.060 2.662  3.458 1.000 1.00000 3.060 1.000      2.178  23.000
 1263 3.070 2.671  3.469 1.000 1.00000 3.070 1.000     10.151  23.000
 1264 3.090 2.689  3.491 1.000 1.00000 3.090 1.000      9.517  23.000
 1265 3.070 2.671  3.469 1.000 1.00000 3.070 1.000      3.630  23.000
 1266 3.120 2.716  3.524 1.000 1.00000 3.120 1.000      9.730  23.000
 1267 3.060 2.662  3.458 1.000 1.00000 3.060 1.000      2.885  23.000
 1268 3.120 2.716  3.524 1.000 1.00000 3.120 1.000      7.171  23.000
 1269 3.120 2.716  3.524 1.000 1.00000 3.120 1.000     16.737  23.000
 1270 3.100 2.698  3.502 1.000 1.00000 3.100 1.000     16.238  23.000
 1271 3.130 2.725  3.535 1.000 1.00000 3.130 1.000      8.173  23.000
 1272 3.070 2.671  3.469 1.000 1.00000 3.070 1.000      4.084  23.000
 1273 3.100 2.698  3.502 1.000 1.00000 3.100 1.000      4.253  23.000
 1274 3.090 2.689  3.491 1.000 1.00000 3.090 1.000     15.883  23.000
 1275 3.080 2.680  3.480 1.000 1.00000 3.080 1.000     16.883  23.000
 1276 3.100 2.698  3.502 1.000 1.00000 3.100 1.000      4.799  23.000
 1277 3.100 2.698  3.502 1.000 1.00000 3.100 1.000      9.500  23.000
 1278 3.120 2.716  3.524 1.000 1.00000 3.120 1.000     22.203  23.000
 1279 3.070 2.671  3.469 1.000 1.00000 3.070 1.000      4.877  23.000
 1280 3.110 2.707  3.513 1.000 1.00000 3.110 1.000     32.929  23.000
 1281 3.080 2.680  3.480 1.000 1.00000 3.080 1.000     27.816  23.000
 1282 3.120 2.716  3.524 1.000 1.00000 3.120 1.000     26.809  23.000
 1283 3.110 2.707  3.513 1.000 1.00000 3.110 1.000     23.322  23.000
 1284 3.070 2.671  3.469 1.000 1.00000 3.070 1.000      2.583  23.000
 1285 3.120 2.716  3.524 1.000 1.00000 3.120 1.000     12.355  23.000
 1286 3.080 2.680  3.480 1.000 1.00000 3.080 1.000      7.345  23.000
 1287 3.070 2.671  3.469 1.000 1.00000 3.070 1.000      2.141  23.000
 1288 3.080 2.680  3.480 1.000 1.00000 3.080 1.000      3.815  23.000
 1289 3.100 2.698  3.502 1.000 1.00000 3.100 1.000     16.403  23.000
 1290 3.080 2.680  3.480 1.000 1.00000 3.080 1.000      3.872  23.000
 1291 3.110 2.707  3.513 1.000 1.00000 3.110 1.000     10.497  23.000
 1292 3.060 2.662  3.458 1.000 1.00000 3.060 1.000      3.330  23.000
 1293 3.100 2.698  3.502 1.000 1.00000 3.100 1.000      5.773  23.000
 1294 3.090 2.689  3.491 1.000 1.00000 3.090 1.000      7.045  23.000
 1295 3.080 2.680  3.480 1.000 1.00000 3.080 1.000     15.623  23.000
 1296 3.130 2.725  3.535 1.000 1.00000 3.130 1.000     15.877  23.000
 1297 3.090 2.689  3.491 1.000 1.00000 3.090 1.000      7.493  23.000
 1298 3.100 2.698  3.502 1.000 1.00000 3.100 1.000     17.182  23.000
 1299 3.100 2.698  3.502 1.000 1.00000 3.100 1.000     25.885  23.000
 1300 3.080 2.680  3.480 1.000 1.00000 3.080 1.000      4.049  23.000
 1301 3.110 2.707  3.513 1.000 1.00000 3.110 1.000      8.612  23.000
 1302 3.080 2.680  3.480 1.000 1.00000 3.080 1.000      2.686  23.000
 1303 3.090 2.689  3.491 1.000 1.00000 3.090 1.000     10.287  23.000
 1304 3.080 2.680  3.480 1.000 1.00000 3.080 1.000      2.267  23.000
 1305 3.100 2.698  3.502 1.000 1.00000 3.100 1.000     11.367  23.000
 1306 3.080 2.680  3.480 1.000 1.00000 3.080 1.000     22.401  23.000
 1307 3.110 2.707  3.513 1.000 1.00000 3.110 1.000      9.647  23.000
 1308 3.090 2.689  3.491 1.000 1.00000 3.090 1.000     29.653  23.000
 1309 3.080 2.680  3.480 1.000 1.00000 3.080 1.000      3.073  23.000
 1310 3.130 2.725  3.535 1.000 1.00000 3.130 1.000     10.124  23.000
 1311 3.060 2.662  3.458 1.000 1.00000 3.060 1.000      2.939  23.000
 1312 3.090 2.689  3.491 1.000 1.00000 3.090 1.000     10.263  23.000
 1313 3.120 2.716  3.524 1.000 1.00000 3.120 1.000     14.099  23.000
 1314 3.090 2.689  3.491 1.000 1.00000 3.090 1.000      5.577  23.000
 1315 3.120 2.716  3.524 1.000 1.00000 3.120 1.000      9.254  23.000
 1316 3.090 2.689  3.491 1.000 1.00000 3.090 1.000      6.257  23.000
 1317 3.100 2.698  3.502 1.000 1.00000 3.100 1.000      4.964  23.000
 1318 3.050 2.653  3.447 1.000 1.00000 3.050 1.000      3.188  23.000
 1319 3.070 2.671  3.469 1.000 1.00000 3.070 1.000      2.451  23.000
 1320 3.090 2.689  3.491 1.000 1.00000 3.090 1.000     24.641  23.000
 1321 3.100 2.698  3.502 1.000 1.00000 3.100 1.000      9.471  23.000
 1322 3.090 2.689  3.491 1.000 1.00000 3.090 1.000      8.084  23.000
 1323 3.090 2.689  3.491 1.000 1.00000 3.090 1.000     22.948  23.000
 1324 3.110 2.707  3.513 1.000 1.00000 3.110 1.000     15.096  23.000
 1325 3.080 2.680  3.480 1.000 1.00000 3.080 1.000      9.297  23.000
 1326 3.110 2.707  3.513 1.000 1.00000 3.110 1.000     45.465  23.000
 1327 3.070 2.671  3.469 1.000 1.00000 3.070 1.000     23.118  23.000
 1328 3.100 2.698  3.502 1.000 1.00000 3.100 1.000      6.453  23.000
 1329 3.090 2.689  3.491 1.000 1.00000 3.090 1.000     30.003  23.000
 1330 3.070 2.671  3.469 1.000 1.00000 3.070 1.000      9.063  23.000
 1331 3.080 2.680  3.480 1.000 1.00000 3.080 1.000     16.166  23.000
 1332 3.110 2.707  3.513 1.000 1.00000 3.110 1.000     12.130  23.000
 1333 3.080 2.680  3.480 1.000 1.00000 3.080 1.000      5.925  23.000
 1334 3.100 2.698  3.502 1.000 1.00000 3.100 1.000      8.762  23.000
 1335 3.080 2.680  3.480 1.000 1.00000 3.080 1.000     19.695  23.000
 1336 3.120 2.716  3.524 1.000 1.00000 3.120 1.000     19.535  23.000
 1337 3.080 2.680  3.480 1.000 1.00000 3.080 1.000      5.387  23.000
 1338 3.090 2.689  3.491 1.000 1.00000 3.090 1.000      6.878  23.000
 1339 3.060 2.662  3.458 1.000 1.00000 3.060 1.000      2.536  23.000
 1340 3.100 2.698  3.502 1.000 1.00000 3.100 1.000      7.478  23.000
 1341 3.100 2.698  3.502 1.000 1.00000 3.100 1.000      5.009  23.000
 1342 3.070 2.671  3.469 1.000 1.00000 3.070 1.000      2.043  23.000
 1343 3.100 2.698  3.502 1.000 1.00000 3.100 1.000     20.575  23.000
 1344 3.090 2.689  3.491 1.000 1.00000 3.090 1.000      8.228  23.000
 1345 3.080 2.680  3.480 1.000 1.00000 3.080 1.000      9.405  23.000
 1346 3.090 2.689  3.491 1.000 1.00000 3.090 1.000      8.228  23.000
 1347 3.090 2.689  3.491 1.000 1.00000 3.090 1.000      8.264  23.000
 1348 3.100 2.698  3.502 1.000 1.00000 3.100 1.000     23.242  23.000
 1349 3.060 2.662  3.458 1.000 1.00000 3.060 1.000      1.861  23.000
 1350 3.060 2.662  3.458 1.000 1.00000 3.060 1.000      3.098  23.000
 1351 3.090 2.689  3.491 1.000 1.00000 3.090 1.000      3.572  23.000
 1352 3.100 2.698  3.502 1.000 1.00000 3.100 1.000      5.039  23.000
 1353 3.140 2.734  3.546 1.000 1.00000 3.140 1.000     10.847  23.000
 1354 3.140 2.734  3.546 1.000 1.00000 3.140 1.000     13.671  23.000
 1355 3.080 2.680  3.480 1.000 1.00000 3.080 1.000     28.165  23.000
 1356 3.080 2.680  3.480 1.000 1.00000 3.080 1.000      2.984  23.000
 1357 3.090 2.689  3.491 1.000 1.00000 3.090 1.000      3.083  23.000
 1358 3.090 2.689  3.491 1.000 1.00000 3.090 1.000     16.907  23.000
 1359 3.120 2.716  3.524 1.000 1.00000 3.120 1.000      8.633  23.000
 1360 3.110 2.707  3.513 1.000 1.00000 3.110 1.000      6.637  23.000
 1361 3.110 2.707  3.513 1.000 1.00000 3.110 1.000     11.462  23.000
 1362 3.090 2.689  3.491 1.000 1.00000 3.090 1.000      7.125  23.000
 1363 3.110 2.707  3.513 1.000 1.00000 3.110 1.000     10.681  23.000
 1364 3.110 2.707  3.513 1.000 1.00000 3.110 1.000     12.122  23.000
 1365 3.080 2.680  3.480 1.000 1.00000 3.080 1.000      2.512  23.000
 1366 3.090 2.689  3.491 1.000 1.00000 3.090 1.000     19.722  23.000
 1367 3.080 2.680  3.480 1.000 1.00000 3.080 1.000      2.416  23.000
 1368 3.080 2.680  3.480 1.000 1.00000 3.080 1.000      3.510  23.000
 1369 3.090 2.689  3.491 1.000 1.00000 3.090 1.000     19.809  23.000
 1370 3.090 2.689  3.491 1.000 1.00000 3.090 1.000      7.094  23.000
 1371 3.070 2.671  3.469 1.000 1.00000 3.070 1.000      7.507  23.000
 1372 3.070 2.671  3.469 1.000 1.00000 3.070 1.000      6.254  23.000
 1373 3.080 2.680  3.480 1.000 1.00000 3.080 1.000      7.341  23.000
 1374 3.070 2.671  3.469 1.000 1.00000 3.070 1.000      5.994  23.000
 1375 3.110 2.707  3.513 1.000 1.00000 3.110 1.000     13.422  23.000
 1376 3.070 2.671  3.469 1.000 1.00000 3.070 1.000      4.213  23.000
 1377 3.070 2.671  3.469 1.000 1.00000 3.070 1.000      2.146  23.000
 1378 3.080 2.680  3.480 1.000 1.00000 3.080 1.000      7.315  23.000
 1379 3.100 2.698  3.502 1.000 1.00000 3.100 1.000      8.223  23.000
 1380 3.100 2.698  3.502 1.000 1.00000 3.100 1.000     10.129  23.000
 1381 3.090 2.689  3.491 1.000 1.00000 3.090 1.000      4.097  23.000
 1382 3.080 2.680  3.480 1.000 1.00000 3.080 1.000      3.815  23.000
 1383 3.090 2.689  3.491 1.000 1.00000 3.090 1.000      9.577  23.000
 1384 3.070 2.671  3.469 1.000 1.00000 3.070 1.000      4.038  23.000
 1385 3.080 2.680  3.480 1.000 1.00000 3.080 1.000     12.496  23.000
 1386 3.060 2.662  3.458 1.000 1.00000 3.060 1.000      5.070  23.000
 1387 3.060 2.662  3.458 1.000 1.00000 3.060 1.000      1.201  23.000
 1388 3.090 2.689  3.491 1.000 1.00000 3.090 1.000     23.712  23.000
 1389 3.110 2.707  3.513 1.000 1.00000 3.110 1.000      7.506  23.000
 1390 3.110 2.707  3.513 1.000 1.00000 3.110 1.000      8.289  23.000
 1391 3.110 2.707  3.513 1.000 1.00000 3.110 1.000     22.889  23.000
 1392 3.080 2.680  3.480 1.000 1.00000 3.080 1.000     12.651  23.000
 1393 3.060 2.662  3.458 1.000 1.00000 3.060 1.000      8.205  23.000
 1394 3.120 2.716  3.524 1.000 1.00000 3.120 1.000     12.094  23.000
 1395 3.090 2.689  3.491 1.000 1.00000 3.090 1.000      5.931  23.000
 1396 3.110 2.707  3.513 1.000 1.00000 3.110 1.000      9.673  23.000
 1397 3.060 2.662  3.458 1.000 1.00000 3.060 1.000      7.800  23.000
 1398 3.120 2.716  3.524 1.000 1.00000 3.120 1.000     13.490  23.000
 1399 3.090 2.689  3.491 1.000 1.00000 3.090 1.000      7.969  23.000
 1400 3.090 2.689  3.491 1.000 1.00000 3.090 1.000      3.334  23.000
 1401 3.080 2.680  3.480 1.000 1.00000 3.080 1.000      2.524  23.000
 1402 3.120 2.716  3.524 1.000 1.00000 3.120 1.000     14.481  23.000
 1403 3.090 2.689  3.491 1.000 1.00000 3.090 1.000     11.462  23.000
 1404 3.110 2.707  3.513 1.000 1.00000 3.110 1.000      9.293  23.000
 1405 3.110 2.707  3.513 1.000 1.00000 3.110 1.000     19.744  23.000
 1406 3.130 2.725  3.535 1.000 1.00000 3.130 1.000     15.850  23.000
 1407 3.090 2.689  3.491 1.000 1.00000 3.090 1.000      8.476  23.000
 1408 3.050 2.653  3.447 1.000 1.00000 3.050 1.000      1.653  23.000
 1409 3.100 2.698  3.502 1.000 1.00000 3.100 1.000      7.005  23.000
 1410 3.080 2.680  3.480 1.000 1.00000 3.080 1.000      7.486  23.000
 1411 3.070 2.671  3.469 1.000 1.00000 3.070 1.000     12.722  23.000
 1412 3.080 2.680  3.480 1.000 1.00000 3.080 1.000      6.056  23.000
 1413 3.100 2.698  3.502 1.000 1.00000 3.100 1.000      8.066  23.000
 1414 3.100 2.698  3.502 1.000 1.00000 3.100 1.000     14.839  23.000
 1415 3.070 2.671  3.469 1.000 1.00000 3.070 1.000      4.670  23.000
 1416 3.080 2.680  3.480 1.000 1.00000 3.080 1.000      3.975  23.000
 1417 3.110 2.707  3.513 1.000 1.00000 3.110 1.000     11.418  23.000
 1418 3.120 2.716  3.524 1.000 1.00000 3.120 1.000     19.882  23.000
 1419 3.050 2.653  3.447 1.000 1.00000 3.050 1.000      3.211  23.000
 1420 3.100 2.698  3.502 1.000 1.00000 3.100 1.000     13.681  23.000
 1421 3.100 2.698  3.502 1.000 1.00000 3.100 1.000     36.905  23.000
 1422 3.100 2.698  3.502 1.000 1.00000 3.100 1.000     14.315  23.000
 1423 3.060 2.662  3.458 1.000 1.00000 3.060 1.000      2.082  23.000
 1424 3.100 2.698  3.502 1.000 1.00000 3.100 1.000      6.809  23.000
 1425 3.130 2.725  3.535 1.000 1.00000 3.130 1.000      8.021  23.000
 1426 3.100 2.698  3.502 1.000 1.00000 3.100 1.000      5.355  23.000
 1427 3.110 2.707  3.513 1.000 1.00000 3.110 1.000      6.979  23.000
 1428 3.110 2.707  3.513 1.000 1.00000 3.110 1.000      5.095  23.000
 1429 3.060 2.662  3.458 1.000 1.00000 3.060 1.000     17.855  23.000
 1430 3.110 2.707  3.513 1.000 1.00000 3.110 1.000     12.076  23.000
 1431 3.080 2.680  3.480 1.000 1.00000 3.080 1.000      3.762  23.000
 1432 3.070 2.671  3.469 1.000 1.00000 3.070 1.000      4.444  23.000
 1433 3.060 2.662  3.458 1.000 1.00000 3.060 1.000      6.275  23.000
 1434 3.060 2.662  3.458 1.000 1.00000 3.060 1.000      9.579  23.000
 1435 3.070 2.671  3.469 1.000 1.00000 3.070 1.000      3.581  23.000
 1436 3.090 2.689  3.491 1.000 1.00000 3.090 1.000     16.632  23.000
 1437 3.100 2.698  3.502 1.000 1.00000 3.100 1.000     10.565  23.000
 1438 3.140 2.734  3.546 1.000 1.00000 3.140 1.000      9.805  23.000
 1439 3.090 2.689  3.491 1.000 1.00000 3.090 1.000     10.145  23.000
 1440 3.110 2.707  3.513 1.000 1.00000 3.110 1.000      9.312  23.000
 1441 3.080 2.680  3.480 1.000 1.00000 3.080 1.000     13.165  23.000
 1442 3.060 2.662  3.458 1.000 1.00000 3.060 1.000      9.567  23.000
 1443 3.080 2.680  3.480 1.000 1.00000 3.080 1.000      7.476  23.000
 1444 3.060 2.662  3.458 1.000 1.00000 3.060 1.000      4.285  23.000
 1445 3.080 2.680  3.480 1.000 1.00000 3.080 1.000      2.132  23.000
 1446 3.060 2.662  3.458 1.000 1.00000 3.060 1.000      3.351  23.000
 1447 3.080 2.680  3.480 1.000 1.00000 3.080 1.000     10.595  23.000
 1448 3.110 2.707  3.513 1.000 1.00000 3.110 1.000     14.705  23.000
 1449 3.080 2.680  3.480 1.000 1.00000 3.080 1.000      9.699  23.000
 1450 3.110 2.707  3.513 1.000 1.00000 3.110 1.000      9.895  23.000
 1451 3.080 2.680  3.480 1.000 1.00000 3.080 1.000      4.157  23.000
 1452 3.110 2.707  3.513 1.000 1.00000 3.110 1.000      7.881  23.000
 1453 3.110 2.707  3.513 1.000 1.00000 3.110 1.000     12.340  23.000
 1454 3.060 2.662  3.458 1.000 1.00000 3.060 1.000     15.289  23.000
 1455 3.120 2.716  3.524 1.000 1.00000 3.120 1.000     15.990  23.000
 1456 3.060 2.662  3.458 1.000 1.00000 3.060 1.000      2.550  23.000
 1457 3.100 2.698  3.502 1.000 1.00000 3.100 1.000      6.912  23.000
 1458 3.070 2.671  3.469 1.000 1.00000 3.070 1.000     26.210  23.000
 1459 3.060 2.662  3.458 1.000 1.00000 3.060 1.000      3.915  23.000
 1460 3.080 2.680  3.480 1.000 1.00000 3.080 1.000      4.125  23.000
 1461 3.120 2.716  3.524 1.000 1.00000 3.120 1.000     23.374  23.000
 1462 3.060 2.662  3.458 1.000 1.00000 3.060 1.000      7.551  23.000
 1463 3.110 2.707  3.513 1.000 1.00000 3.110 1.000     11.252  23.000
 1464 3.080 2.680  3.480 1.000 1.00000 3.080 1.000      4.231  23.000
 1465 3.100 2.698  3.502 1.000 1.00000 3.100 1.000     16.436  23.000
 1466 3.080 2.680  3.480 1.000 1.00000 3.080 1.000      5.739  23.000
 1467 3.120 2.716  3.524 1.000 1.00000 3.120 1.000     19.869  23.000
 1468 3.120 2.716  3.524 1.000 1.00000 3.120 1.000     19.487  23.000
 1469 3.070 2.671  3.469 1.000 1.00000 3.070 1.000      1.796  23.000
 1470 3.080 2.680  3.480 1.000 1.00000 3.080 1.000      3.254  23.000
 1471 3.070 2.671  3.469 1.000 1.00000 3.070 1.000      4.888  23.000
 1472 3.110 2.707  3.513 1.000 1.00000 3.110 1.000      7.099  23.000
 1473 3.070 2.671  3.469 1.000 1.00000 3.070 1.000      1.739  23.000
 1474 3.110 2.707  3.513 1.000 1.00000 3.110 1.000     10.225  23.000
 1475 3.100 2.698  3.502 1.000 1.00000 3.100 1.000     10.725  23.000
 1476 3.060 2.662  3.458 1.000 1.00000 3.060 1.000      5.247  23.000
 1477 3.080 2.680  3.480 1.000 1.00000 3.080 1.000      6.131  23.000
 1478 3.060 2.662  3.458 1.000 1.00000 3.060 1.000      2.827  23.000
 1479 3.100 2.698  3.502 1.000 1.00000 3.100 1.000      5.512  23.000
 1480 3.080 2.680  3.480 1.000 1.00000 3.080 1.000     27.522  23.000
 1481 3.080 2.680  3.480 1.000 1.00000 3.080 1.000      7.892  23.000
 1482 3.090 2.689  3.491 1.000 1.00000 3.090 1.000      3.308  23.000
 1483 3.100 2.698  3.502 1.000 1.00000 3.100 1.000     17.845  23.000
 1484 3.070 2.671  3.469 1.000 1.00000 3.070 1.000      2.136  23.000
 1485 3.080 2.680  3.480 1.000 1.00000 3.080 1.000      2.317  23.000
 1486 3.080 2.680  3.480 1.000 1.00000 3.080 1.000      4.429  23.000
 1487 3.080 2.680  3.480 1.000 1.00000 3.080 1.000      7.158  23.000
 1488 3.040 2.644  3.436 1.000 1.00000 3.040 1.000      2.241  23.000
 1489 3.090 2.689  3.491 1.000 1.00000 3.090 1.000      8.812  23.000
 1490 3.090 2.689  3.491 1.000 1.00000 3.090 1.000      4.160  23.000
 1491 3.080 2.680  3.480 1.000 1.00000 3.080 1.000      7.619  23.000
 1492 3.110 2.707  3.513 1.000 1.00000 3.110 1.000      5.026  23.000
 1493 3.080 2.680  3.480 1.000 1.00000 3.080 1.000      5.886  23.000
 1494 3.090 2.689  3.491 1.000 1.00000 3.090 1.000      6.442  23.000
 1495 3.090 2.689  3.491 1.000 1.00000 3.090 1.000      5.485  23.000
 1496 3.060 2.662  3.458 1.000 1.00000 3.060 1.000     11.341  23.000
 1497 3.100 2.698  3.502 1.000 1.00000 3.100 1.000     11.405  23.000
 1498 3.110 2.707  3.513 1.000 1.00000 3.110 1.000     15.194  23.000
 1499 3.080 2.680  3.480 1.000 1.00000 3.080 1.000      8.593  23.000
 1500 3.090 2.689  3.491 1.000 1.00000 3.090 1.000     16.041  23.000
 1501 3.060 2.662  3.458 1.000 1.00000 3.060 1.000      1.269  23.000
 1502 3.080 2.680  3.480 1.000 1.00000 3.080 1.000     11.916  23.000
 1503 3.070 2.671  3.469 1.000 1.00000 3.070 1.000     14.062  23.000
 1504 3.070 2.671  3.469 1.000 1.00000 3.070 1.000      4.443  23.000
 1505 3.080 2.680  3.480 1.000 1.00000 3.080 1.000     22.024  23.000
 1506 3.090 2.689  3.491 1.000 1.00000 3.090 1.000      3.292  23.000
 1507 3.070 2.671  3.469 1.000 1.00000 3.070 1.000      9.113  23.000
 1508 3.050 2.653  3.447 1.000 1.00000 3.050 1.000      2.829  23.000
 1509 3.090 2.689  3.491 1.000 1.00000 3.090 1.000     12.993  23.000
 1510 3.110 2.707  3.513 1.000 1.00000 3.110 1.000      6.712  23.000
 1511 3.110 2.707  3.513 1.000 1.00000 3.110 1.000     12.341  23.000
 1512 3.070 2.671  3.469 1.000 1.00000 3.070 1.000      8.266  23.000
 1513 3.040 2.644  3.436 1.000 1.00000 3.040 1.000      0.971  23.000
 1514 3.100 2.698  3.502 1.000 1.00000 3.100 1.000     13.384  23.000
 1515 3.130 2.725  3.535 1.000 1.00000 3.130 1.000      7.091  23.000
 1516 3.110 2.707  3.513 1.000 1.00000 3.110 1.000      5.853  23.000
 1517 3.050 2.653  3.447 1.000 1.00000 3.050 1.000      8.755  23.000
 1518 3.090 2.689  3.491 1.000 1.00000 3.090 1.000      4.559  23.000
 1519 3.110 2.707  3.513 1.000 1.00000 3.110 1.000      6.765  23.000
 1520 3.090 2.689  3.491 1.000 1.00000 3.090 1.000      5.716  23.000
 1521 3.080 2.680  3.480 1.000 1.00000 3.080 1.000      8.371  23.000
 1522 3.100 2.698  3.502 1.000 1.00000 3.100 1.000      6.572  23.000
 1523 3.110 2.707  3.513 1.000 1.00000 3.110 1.000      9.281  23.000
 1524 3.090 2.689  3.491 1.000 1.00000 3.090 1.000     27.330  23.000
 1525 3.060 2.662  3.458 1.000 1.00000 3.060 1.000     16.684  23.000
 1526 3.090 2.689  3.491 1.000 1.00000 3.090 1.000      7.756  23.000
 1527 3.080 2.680  3.480 1.000 1.00000 3.080 1.000     17.164  23.000
 1528 3.060 2.662  3.458 1.000 1.00000 3.060 1.000      3.276  23.000
 1529 3.080 2.680  3.480 1.000 1.00000 3.080 1.000     24.389  23.000
 1530 3.120 2.716  3.524 1.000 1.00000 3.120 1.000     57.189  23.000
 1531 3.080 2.680  3.480 1.000 1.00000 3.080 1.000      6.402  23.000
 1532 3.080 2.680  3.480 1.000 1.00000 3.080 1.000      3.164  23.000
 1533 3.060 2.662  3.458 1.000 1.00000 3.060 1.000      1.774  23.000
 1534 3.080 2.680  3.480 1.000 1.00000 3.080 1.000      2.312  23.000
 1535 3.090 2.689  3.491 1.000 1.00000 3.090 1.000      9.222  23.000
 1536 3.090 2.689  3.491 1.000 1.00000 3.090 1.000      4.835  23.000
 1537 3.090 2.689  3.491 1.000 1.00000 3.090 1.000     25.332  23.000
 1538 3.090 2.689  3.491 1.000 1.00000 3.090 1.000      3.972  23.000
 1539 3.080 2.680  3.480 1.000 1.00000 3.080 1.000     22.482  23.000
 1540 3.100 2.698  3.502 1.000 1.00000 3.100 1.000     17.018  23.000
 1541 3.110 2.707  3.513 1.000 1.00000 3.110 1.000      6.911  23.000
 1542 3.100 2.698  3.502 1.000 1.00000 3.100 1.000     30.524  23.000
 1543 3.090 2.689  3.491 1.000 1.00000 3.090 1.000     23.764  23.000
 1544 3.070 2.671  3.469 1.000 1.00000 3.070 1.000      1.546  23.000
 1545 3.090 2.689  3.491 1.000 1.00000 3.090 1.000      5.828  23.000
 1546 3.090 2.689  3.491 1.000 1.00000 3.090 1.000      5.066  23.000
 1547 3.090 2.689  3.491 1.000 1.00000 3.090 1.000     19.993  23.000
 1548 3.070 2.671  3.469 1.000 1.00000 3.070 1.000      1.629  23.000
 1549 3.110 2.707  3.513 1.000 1.00000 3.110 1.000     15.624  23.000
 1550 3.070 2.671  3.469 1.000 1.00000 3.070 1.000     19.030  23.000
 1551 3.110 2.707  3.513 1.000 1.00000 3.110 1.000     16.739  23.000
 1552 3.040 2.644  3.436 1.000 1.00000 3.040 1.000      6.041  23.000
 1553 3.090 2.689  3.491 1.000 1.00000 3.090 1.000     23.212  23.000
 1554 3.080 2.680  3.480 1.000 1.00000 3.080 1.000      4.104  23.000
 1555 3.100 2.698  3.502 1.000 1.00000 3.100 1.000      5.534  23.000
 1556 3.100 2.698  3.502 1.000 1.00000 3.100 1.000      4.325  23.000
 1557 3.100 2.698  3.502 1.000 1.00000 3.100 1.000      5.335  23.000
 1558 3.050 2.653  3.447 1.000 1.00000 3.050 1.000     18.475  23.000
 1559 3.070 2.671  3.469 1.000 1.00000 3.070 1.000      6.496  23.000
 1560 3.100 2.698  3.502 1.000 1.00000 3.100 1.000      7.714  23.000
 1561 3.070 2.671  3.469 1.000 1.00000 3.070 1.000      4.549  23.000
 1562 3.070 2.671  3.469 1.000 1.00000 3.070 1.000      1.678  23.000
 1563 3.100 2.698  3.502 1.000 1.00000 3.100 1.000      8.649  23.000
 1564 3.080 2.680  3.480 1.000 1.00000 3.080 1.000      3.570  23.000
 1565 3.090 2.689  3.491 1.000 1.00000 3.090 1.000     28.427  23.000
 1566 3.090 2.689  3.491 1.000 1.00000 3.090 1.000      4.422  23.000
 1567 3.110 2.707  3.513 1.000 1.00000 3.110 1.000     10.850  23.000
 1568 3.090 2.689  3.491 1.000 1.00000 3.090 1.000      5.041  23.000
 1569 3.080 2.680  3.480 1.000 1.00000 3.080 1.000     10.571  23.000
 1570 3.090 2.689  3.491 1.000 1.00000 3.090 1.000      6.349  23.000
 1571 3.100 2.698  3.502 1.000 1.00000 3.100 1.000      4.499  23.000
 1572 3.070 2.671  3.469 1.000 1.00000 3.070 1.000      9.104  23.000
 1573 3.100 2.698  3.502 1.000 1.00000 3.100 1.000      6.731  23.000
 1574 3.120 2.716  3.524 1.000 1.00000 3.120 1.000     23.324  23.000
 1575 3.070 2.671  3.469 1.000 1.00000 3.070 1.000      5.304  23.000
 1576 3.130 2.725  3.535 1.000 1.00000 3.130 1.000     21.118  23.000
 1577 3.090 2.689  3.491 1.000 1.00000 3.090 1.000     20.889  23.000
 1578 3.080 2.680  3.480 1.000 1.00000 3.080 1.000      4.858  23.000
 1579 3.110 2.707  3.513 1.000 1.00000 3.110 1.000      5.379  23.000
 1580 3.150 2.743  3.557 1.000 1.00000 3.150 1.000     12.783  23.000
 1581 3.110 2.707  3.513 1.000 1.00000 3.110 1.000     12.268  23.000
 1582 3.070 2.671  3.469 1.000 1.00000 3.070 1.000      2.514  23.000
 1583 3.150 2.743  3.557 1.000 1.00000 3.150 1.000     40.492  23.000
 1584 3.090 2.689  3.491 1.000 1.00000 3.090 1.000     17.026  23.000
 1585 3.080 2.680  3.480 1.000 1.00000 3.080 1.000     21.077  23.000
 1586 3.090 2.689  3.491 1.000 1.00000 3.090 1.000      8.595  23.000
 1587 3.110 2.707  3.513 1.000 1.00000 3.110 1.000     13.758  23.000
 1588 3.090 2.689  3.491 1.000 1.00000 3.090 1.000     16.703  23.000
 1589 3.070 2.671  3.469 1.000 1.00000 3.070 1.000     10.348  23.000
 1590 3.060 2.662  3.458 1.000 1.00000 3.060 1.000      6.912  23.000
 1591 3.120 2.716  3.524 1.000 1.00000 3.120 1.000      7.007  23.000
 1592 3.120 2.716  3.524 1.000 1.00000 3.120 1.000     14.298  23.000
 1593 3.060 2.662  3.458 1.000 1.00000 3.060 1.000     27.701  23.000
 1594 3.090 2.689  3.491 1.000 1.00000 3.090 1.000      3.482  23.000
 1595 3.120 2.716  3.524 1.000 1.00000 3.120 1.000     39.981  23.000
 1596 3.100 2.698  3.502 1.000 1.00000 3.100 1.000     12.587  23.000
 1597 3.110 2.707  3.513 1.000 1.00000 3.110 1.000     11.319  23.000
 1598 3.100 2.698  3.502 1.000 1.00000 3.100 1.000      3.850  23.000
 1599 3.100 2.698  3.502 1.000 1.00000 3.100 1.000      4.238  23.000
 1600 3.110 2.707  3.513 1.000 1.00000 3.110 1.000      6.830  23.000
 1601 3.050 2.653  3.447 1.000 1.00000 3.050 1.000      0.973  23.000
 1602 3.100 2.698  3.502 1.000 1.00000 3.100 1.000      9.639  23.000
 1603 3.110 2.707  3.513 1.000 1.00000 3.110 1.000     28.367  23.000
 1604 3.090 2.689  3.491 1.000 1.00000 3.090 1.000     14.398  23.000
 1605 3.060 2.662  3.458 1.000 1.00000 3.060 1.000      7.915  23.000
 1606 3.080 2.680  3.480 1.000 1.00000 3.080 1.000      4.835  23.000
 1607 3.050 2.653  3.447 1.000 1.00000 3.050 1.000      7.209  23.000
 1608 3.110 2.707  3.513 1.000 1.00000 3.110 1.000      5.995  23.000
 1609 3.100 2.698  3.502 1.000 1.00000 3.100 1.000     27.845  23.000
 1610 3.100 2.698  3.502 1.000 1.00000 3.100 1.000      7.201  23.000
 1611 3.070 2.671  3.469 1.000 1.00000 3.070 1.000      2.947  23.000
 1612 3.090 2.689  3.491 1.000 1.00000 3.090 1.000      5.150  23.000
 1613 3.110 2.707  3.513 1.000 1.00000 3.110 1.000      5.831  23.000
 1614 3.120 2.716  3.524 1.000 1.00000 3.120 1.000      8.519  23.000
 1615 3.100 2.698  3.502 1.000 1.00000 3.100 1.000      7.447  23.000
 1616 3.100 2.698  3.502 1.000 1.00000 3.100 1.000     24.185  23.000
 1617 3.100 2.698  3.502 1.000 1.00000 3.100 1.000     12.189  23.000
 1618 3.080 2.680  3.480 1.000 1.00000 3.080 1.000      7.107  23.000
 1619 3.100 2.698  3.502 1.000 1.00000 3.100 1.000      5.630  23.000
 1620 3.090 2.689  3.491 1.000 1.00000 3.090 1.000     15.594  23.000
 1621 3.110 2.707  3.513 1.000 1.00000 3.110 1.000     27.244  23.000
 1622 3.090 2.689  3.491 1.000 1.00000 3.090 1.000      6.072  23.000
 1623 3.080 2.680  3.480 1.000 1.00000 3.080 1.000      2.140  23.000
 1624 3.080 2.680  3.480 1.000 1.00000 3.080 1.000      5.220  23.000
 1625 3.070 2.671  3.469 1.000 1.00000 3.070 1.000      7.161  23.000
 1626 3.070 2.671  3.469 1.000 1.00000 3.070 1.000      2.394  23.000
 1627 3.100 2.698  3.502 1.000 1.00000 3.100 1.000     28.196  23.000
 1628 3.090 2.689  3.491 1.000 1.00000 3.090 1.000      6.583  23.000
 1629 3.060 2.662  3.458 1.000 1.00000 3.060 1.000      3.432  23.000
 1630 3.090 2.689  3.491 1.000 1.00000 3.090 1.000      3.717  23.000
 1631 3.130 2.725  3.535 1.000 1.00000 3.130 1.000     18.952  23.000
 1632 3.120 2.716  3.524 1.000 1.00000 3.120 1.000     13.365  23.000
 1633 3.080 2.680  3.480 1.000 1.00000 3.080 1.000      4.731  23.000
 1634 3.080 2.680  3.480 1.000 1.00000 3.080 1.000     24.300  23.000
 1635 3.080 2.680  3.480 1.000 1.00000 3.080 1.000      3.151  23.000
 1636 3.090 2.689  3.491 1.000 1.00000 3.090 1.000      3.901  23.000
 1637 3.090 2.689  3.491 1.000 1.00000 3.090 1.000      3.621  23.000
 1638 3.060 2.662  3.458 1.000 1.00000 3.060 1.000      2.743  23.000
 1639 3.100 2.698  3.502 1.000 1.00000 3.100 1.000      4.238  23.000
 1640 3.070 2.671  3.469 1.000 1.00000 3.070 1.000      8.023  23.000
 1641 3.110 2.707  3.513 1.000 1.00000 3.110 1.000      6.015  23.000
 1642 3.070 2.671  3.469 1.000 1.00000 3.070 1.000      7.309  23.000
 1643 3.110 2.707  3.513 1.000 1.00000 3.110 1.000     11.484  23.000
 1644 3.060 2.662  3.458 1.000 1.00000 3.060 1.000     13.982  23.000
 1645 3.080 2.680  3.480 1.000 1.00000 3.080 1.000     20.739  23.000
 1646 3.080 2.680  3.480 1.000 1.00000 3.080 1.000      5.717  23.000
 1647 3.090 2.689  3.491 1.000 1.00000 3.090 1.000      6.863  23.000
 1648 3.110 2.707  3.513 1.000 1.00000 3.110 1.000      9.468  23.000
 1649 3.070 2.671  3.469 1.000 1.00000 3.070 1.000     10.515  23.000
 1650 3.060 2.662  3.458 1.000 1.00000 3.060 1.000      5.368  23.000
 1651 3.070 2.671  3.469 1.000 1.00000 3.070 1.000     13.811  23.000
 1652 3.100 2.698  3.502 1.000 1.00000 3.100 1.000     30.857  23.000
 1653 3.100 2.698  3.502 1.000 1.00000 3.100 1.000     14.050  23.000
 1654 3.100 2.698  3.502 1.000 1.00000 3.100 1.000      7.184  23.000
 1655 3.130 2.725  3.535 1.000 1.00000 3.130 1.000      9.974  23.000
 1656 3.080 2.680  3.480 1.000 1.00000 3.080 1.000      4.538  23.000
 1657 3.110 2.707  3.513 1.000 1.00000 3.110 1.000     18.046  23.000
 1658 3.080 2.680  3.480 1.000 1.00000 3.080 1.000      4.797  23.000
 1659 3.090 2.689  3.491 1.000 1.00000 3.090 1.000     21.135  23.000
 1660 3.100 2.698  3.502 1.000 1.00000 3.100 1.000     10.460  23.000
 1661 3.060 2.662  3.458 1.000 1.00000 3.060 1.000     11.132  23.000
 1662 3.090 2.689  3.491 1.000 1.00000 3.090 1.000      9.262  23.000
 1663 3.080 2.680  3.480 1.000 1.00000 3.080 1.000      2.755  23.000
 1664 3.070 2.671  3.469 1.000 1.00000 3.070 1.000      5.319  23.000
 1665 3.080 2.680  3.480 1.000 1.00000 3.080 1.000     27.445  23.000
 1666 3.060 2.662  3.458 1.000 1.00000 3.060 1.000      2.300  23.000
 1667 3.110 2.707  3.513 1.000 1.00000 3.110 1.000      7.391  23.000
 1668 3.130 2.725  3.535 1.000 1.00000 3.130 1.000     14.486  23.000
 1669 3.060 2.662  3.458 1.000 1.00000 3.060 1.000      6.704  23.000
 1670 3.060 2.662  3.458 1.000 1.00000 3.060 1.000      8.803  23.000
 1671 3.090 2.689  3.491 1.000 1.00000 3.090 1.000      5.601  23.000
 1672 3.040 2.644  3.436 1.000 1.00000 3.040 1.000      6.196  23.000
 1673 3.040 2.644  3.436 1.000 1.00000 3.040 1.000     23.891  23.000
 1674 3.090 2.689  3.491 1.000 1.00000 3.090 1.000      5.119  23.000
 1675 3.090 2.689  3.491 1.000 1.00000 3.090 1.000     21.156  23.000
 1676 3.120 2.716  3.524 1.000 1.00000 3.120 1.000     15.457  23.000
 1677 3.060 2.662  3.458 1.000 1.00000 3.060 1.000      3.697  23.000
 1678 3.110 2.707  3.513 1.000 1.00000 3.110 1.000      7.377  23.000
 1679 3.080 2.680  3.480 1.000 1.00000 3.080 1.000     10.442  23.000
 1680 3.130 2.725  3.535 1.000 1.00000 3.130 1.000     13.271  23.000
 1681 3.100 2.698  3.502 1.000 1.00000 3.100 1.000      5.760  23.000
 1682 3.070 2.671  3.469 1.000 1.00000 3.070 1.000      3.430  23.000
 1683 3.110 2.707  3.513 1.000 1.00000 3.110 1.000      5.652  23.000
 1684 3.100 2.698  3.502 1.000 1.00000 3.100 1.000      5.009  23.000
 1685 3.090 2.689  3.491 1.000 1.00000 3.090 1.000      9.463  23.000
 1686 3.090 2.689  3.491 1.000 1.00000 3.090 1.000     10.056  23.000
 1687 3.060 2.662  3.458 1.000 1.00000 3.060 1.000      3.489  23.000
 1688 3.090 2.689  3.491 1.000 1.00000 3.090 1.000      5.471  23.000
 1689 3.110 2.707  3.513 1.000 1.00000 3.110 1.000      7.468  23.000
 1690 3.100 2.698  3.502 1.000 1.00000 3.100 1.000      7.381  23.000
 1691 3.080 2.680  3.480 1.000 1.00000 3.080 1.000      4.380  23.000
 1692 3.090 2.689  3.491 1.000 1.00000 3.090 1.000      8.907  23.000
 1693 3.110 2.707  3.513 1.000 1.00000 3.110 1.000     35.622  23.000
 1694 3.070 2.671  3.469 1.000 1.00000 3.070 1.000      7.758  23.000
 1695 3.090 2.689  3.491 1.000 1.00000 3.090 1.000      2.825  23.000
 1696 3.060 2.662  3.458 1.000 1.00000 3.060 1.000      3.290  23.000
 1697 3.070 2.671  3.469 1.000 1.00000 3.070 1.000      7.857  23.000
 1698 3.090 2.689  3.491 1.000 1.00000 3.090 1.000      9.855  23.000
 1699 3.090 2.689  3.491 1.000 1.00000 3.090 1.000      5.937  23.000
 1700 3.080 2.680  3.480 1.000 1.00000 3.080 1.000      4.795  23.000
 1701 3.130 2.725  3.535 1.000 1.00000 3.130 1.000      9.124  23.000
 1702 3.120 2.716  3.524 1.000 1.00000 3.120 1.000      6.812  23.000
 1703 3.080 2.680  3.480 1.000 1.00000 3.080 1.000      5.215  23.000
 1704 3.090 2.689  3.491 1.000 1.00000 3.090 1.000      3.698  23.000
 1705 3.060 2.662  3.458 1.000 1.00000 3.060 1.000      5.086  23.000
 1706 3.070 2.671  3.469 1.000 1.00000 3.070 1.000      1.723  23.000
 1707 3.090 2.689  3.491 1.000 1.00000 3.090 1.000      8.686  23.000
 1708 3.100 2.698  3.502 1.000 1.00000 3.100 1.000     13.734  23.000
 1709 3.100 2.698  3.502 1.000 1.00000 3.100 1.000     23.760  23.000
 1710 3.070 2.671  3.469 1.000 1.00000 3.070 1.000     12.504  23.000
 1711 3.130 2.725  3.535 1.000 1.00000 3.130 1.000     13.159  23.000
 1712 3.070 2.671  3.469 1.000 1.00000 3.070 1.000      9.675  23.000
 1713 3.060 2.662  3.458 1.000 1.00000 3.060 1.000      1.675  23.000
 1714 3.090 2.689  3.491 1.000 1.00000 3.090 1.000      3.947  23.000
 1715 3.100 2.698  3.502 1.000 1.00000 3.100 1.000     27.554  23.000
 1716 3.070 2.671  3.469 1.000 1.00000 3.070 1.000      3.057  23.000
 1717 3.120 2.716  3.524 1.000 1.00000 3.120 1.000      9.136  23.000
 1718 3.070 2.671  3.469 1.000 1.00000 3.070 1.000      7.564  23.000
 1719 3.070 2.671  3.469 1.000 1.00000 3.070 1.000      2.089  23.000
 1720 3.090 2.689  3.491 1.000 1.00000 3.090 1.000      5.547  23.000
 1721 3.090 2.689  3.491 1.000 1.00000 3.090 1.000      8.275  23.000
 1722 3.090 2.689  3.491 1.000 1.00000 3.090 1.000      9.770  23.000
 1723 3.090 2.689  3.491 1.000 1.00000 3.090 1.000      4.428  23.000
 1724 3.050 2.653  3.447 1.000 1.00000 3.050 1.000     11.657  23.000
 1725 3.100 2.698  3.502 1.000 1.00000 3.100 1.000      5.238  23.000
 1726 3.090 2.689  3.491 1.000 1.00000 3.090 1.000     23.580  23.000
 1727 3.090 2.689  3.491 1.000 1.00000 3.090 1.000     14.032  23.000
 1728 3.060 2.662  3.458 1.000 1.00000 3.060 1.000      3.978  23.000
 1729 3.060 2.662  3.458 1.000 1.00000 3.060 1.000     11.758  23.000
 1730 3.100 2.698  3.502 1.000 1.00000 3.100 1.000     20.851  23.000
 1731 3.110 2.707  3.513 1.000 1.00000 3.110 1.000     31.331  23.000
 1732 3.070 2.671  3.469 1.000 1.00000 3.070 1.000      6.763  23.000
 1733 3.060 2.662  3.458 1.000 1.00000 3.060 1.000      3.691  23.000
 1734 3.100 2.698  3.502 1.000 1.00000 3.100 1.000      5.529  23.000
 1735 3.100 2.698  3.502 1.000 1.00000 3.100 1.000     15.069  23.000
 1736 3.100 2.698  3.502 1.000 1.00000 3.100 1.000      6.941  23.000
 1737 3.070 2.671  3.469 1.000 1.00000 3.070 1.000      2.957  23.000
 1738 3.070 2.671  3.469 1.000 1.00000 3.070 1.000     14.197  23.000
 1739 3.090 2.689  3.491 1.000 1.00000 3.090 1.000     21.620  23.000
 1740 3.080 2.680  3.480 1.000 1.00000 3.080 1.000      8.336  23.000
 1741 3.090 2.689  3.491 1.000 1.00000 3.090 1.000     29.601  23.000
 1742 3.080 2.680  3.480 1.000 1.00000 3.080 1.000      5.591  23.000
 1743 3.080 2.680  3.480 1.000 1.00000 3.080 1.000      2.250  23.000
 1744 3.090 2.689  3.491 1.000 1.00000 3.090 1.000      5.587  23.000
 1745 3.100 2.698  3.502 1.000 1.00000 3.100 1.000      8.969  23.000
 1746 3.070 2.671  3.469 1.000 1.00000 3.070 1.000     12.216  23.000
 1747 3.070 2.671  3.469 1.000 1.00000 3.070 1.000      1.778  23.000
 1748 3.090 2.689  3.491 1.000 1.00000 3.090 1.000      3.331  23.000
 1749 3.100 2.698  3.502 1.000 1.00000 3.100 1.000      5.185  23.000
 1750 3.130 2.725  3.535 1.000 1.00000 3.130 1.000      8.578  23.000
 1751 3.080 2.680  3.480 1.000 1.00000 3.080 1.000      5.080  23.000
 1752 3.060 2.662  3.458 1.000 1.00000 3.060 1.000     10.473  23.000
 1753 3.070 2.671  3.469 1.000 1.00000 3.070 1.000      5.217  23.000
 1754 3.120 2.716  3.524 1.000 1.00000 3.120 1.000      9.362  23.000
 1755 3.060 2.662  3.458 1.000 1.00000 3.060 1.000      5.627  23.000
 1756 3.160 2.752  3.568 1.000 1.00000 3.160 1.000     13.643  23.000
 1757 3.090 2.689  3.491 1.000 1.00000 3.090 1.000      7.482  23.000
 1758 3.120 2.716  3.524 1.000 1.00000 3.120 1.000     13.700  23.000
 1759 3.090 2.689  3.491 1.000 1.00000 3.090 1.000      6.187  23.000
 1760 3.070 2.671  3.469 1.000 1.00000 3.070 1.000      3.000  23.000
 1761 3.060 2.662  3.458 1.000 1.00000 3.060 1.000      2.846  23.000
 1762 3.100 2.698  3.502 1.000 1.00000 3.100 1.000     22.806  23.000
 1763 3.070 2.671  3.469 1.000 1.00000 3.070 1.000     16.383  23.000
 1764 3.070 2.671  3.469 1.000 1.00000 3.070 1.000      5.651  23.000
 1765 3.060 2.662  3.458 1.000 1.00000 3.060 1.000      1.956  23.000
 1766 3.130 2.725  3.535 1.000 1.00000 3.130 1.000     13.133  23.000
 1767 3.120 2.716  3.524 1.000 1.00000 3.120 1.000     16.485  23.000
 1768 3.090 2.689  3.491 1.000 1.00000 3.090 1.000     11.959  23.000
 1769 3.090 2.689  3.491 1.000 1.00000 3.090 1.000     10.965  23.000
 1770 3.110 2.707  3.513 1.000 1.00000 3.110 1.000     12.905  23.000
 1771 3.090 2.689  3.491 1.000 1.00000 3.090 1.000      4.691  23.000
 1772 3.130 2.725  3.535 1.000 1.00000 3.130 1.000      9.404  23.000
 1773 3.090 2.689  3.491 1.000 1.00000 3.090 1.000      3.374  23.000
 1774 3.080 2.680  3.480 1.000 1.00000 3.080 1.000      3.278  23.000
 1775 3.110 2.707  3.513 1.000 1.00000 3.110 1.000      9.936  23.000
 1776 3.110 2.707  3.513 1.000 1.00000 3.110 1.000      5.058  23.000
 1777 3.070 2.671  3.469 1.000 1.00000 3.070 1.000     11.303  23.000
 1778 3.100 2.698  3.502 1.000 1.00000 3.100 1.000      9.317  23.000
 1779 3.080 2.680  3.480 1.000 1.00000 3.080 1.000      3.455  23.000
 1780 3.090 2.689  3.491 1.000 1.00000 3.090 1.000      3.356  23.000
 1781 3.070 2.671  3.469 1.000 1.00000 3.070 1.000      5.095  23.000
 1782 3.080 2.680  3.480 1.000 1.00000 3.080 1.000      4.938  23.000
 1783 3.130 2.725  3.535 1.000 1.00000 3.130 1.000     18.969  23.000
 1784 3.120 2.716  3.524 1.000 1.00000 3.120 1.000     10.490  23.000
 1785 3.070 2.671  3.469 1.000 1.00000 3.070 1.000      1.784  23.000
 1786 3.110 2.707  3.513 1.000 1.00000 3.110 1.000      8.153  23.000
 1787 3.070 2.671  3.469 1.000 1.00000 3.070 1.000     21.005  23.000
 1788 3.050 2.653  3.447 1.000 1.00000 3.050 1.000     16.944  23.000
 1789 3.050 2.653  3.447 1.000 1.00000 3.050 1.000     15.835  23.000
 1790 3.110 2.707  3.513 1.000 1.00000 3.110 1.000     14.258  23.000
 1791 3.070 2.671  3.469 1.000 1.00000 3.070 1.000      5.138  23.000
 1792 3.120 2.716  3.524 1.000 1.00000 3.120 1.000     21.485  23.000
 1793 3.090 2.689  3.491 1.000 1.00000 3.090 1.000     22.470  23.000
 1794 3.060 2.662  3.458 1.000 1.00000 3.060 1.000      2.598  23.000
 1795 3.080 2.680  3.480 1.000 1.00000 3.080 1.000      9.694  23.000
 1796 3.130 2.725  3.535 1.000 1.00000 3.130 1.000      7.496  23.000
 1797 3.100 2.698  3.502 1.000 1.00000 3.100 1.000      7.450  23.000
 1798 3.070 2.671  3.469 1.000 1.00000 3.070 1.000     17.448  23.000
 1799 3.060 2.662  3.458 1.000 1.00000 3.060 1.000      3.537  23.000
 1800 3.080 2.680  3.480 1.000 1.00000 3.080 1.000      3.311  23.000
 1801 3.060 2.662  3.458 1.000 1.00000 3.060 1.000      3.713  23.000
 1802 3.080 2.680  3.480 1.000 1.00000 3.080 1.000     18.213  23.000
 1803 3.090 2.689  3.491 1.000 1.00000 3.090 1.000      7.490  23.000
 1804 3.120 2.716  3.524 1.000 1.00000 3.120 1.000     19.976  23.000
 1805 3.100 2.698  3.502 1.000 1.00000 3.100 1.000      5.544  23.000
 1806 3.070 2.671  3.469 1.000 1.00000 3.070 1.000      2.107  23.000
 1807 3.080 2.680  3.480 1.000 1.00000 3.080 1.000     16.779  23.000
 1808 3.100 2.698  3.502 1.000 1.00000 3.100 1.000      4.470  23.000
 1809 3.060 2.662  3.458 1.000 1.00000 3.060 1.000      5.536  23.000
 1810 3.090 2.689  3.491 1.000 1.00000 3.090 1.000     14.240  23.000
 1811 3.090 2.689  3.491 1.000 1.00000 3.090 1.000      3.387  23.000
 1812 3.060 2.662  3.458 1.000 1.00000 3.060 1.000     10.892  23.000
 1813 3.110 2.707  3.513 1.000 1.00000 3.110 1.000     24.157  23.000
 1814 3.100 2.698  3.502 1.000 1.00000 3.100 1.000     10.797  23.000
 1815 3.120 2.716  3.524 1.000 1.00000 3.120 1.000      7.984  23.000
 1816 3.090 2.689  3.491 1.000 1.00000 3.090 1.000     14.454  23.000
 1817 3.110 2.707  3.513 1.000 1.00000 3.110 1.000     10.321  23.000
 1818 3.100 2.698  3.502 1.000 1.00000 3.100 1.000      4.534  23.000
 1819 3.090 2.689  3.491 1.000 1.00000 3.090 1.000      5.871  23.000
 1820 3.090 2.689  3.491 1.000 1.00000 3.090 1.000     14.796  23.000
 1821 3.090 2.689  3.491 1.000 1.00000 3.090 1.000      4.930  23.000
 1822 3.070 2.671  3.469 1.000 1.00000 3.070 1.000      6.075  23.000
 1823 3.080 2.680  3.480 1.000 1.00000 3.080 1.000      5.272  23.000
 1824 3.110 2.707  3.513 1.000 1.00000 3.110 1.000     13.842  23.000
 1825 3.110 2.707  3.513 1.000 1.00000 3.110 1.000     26.619  23.000
 1826 3.090 2.689  3.491 1.000 1.00000 3.090 1.000      6.380  23.000
 1827 3.080 2.680  3.480 1.000 1.00000 3.080 1.000      5.690  23.000
 1828 3.080 2.680  3.480 1.000 1.00000 3.080 1.000      6.203  23.000
 1829 3.070 2.671  3.469 1.000 1.00000 3.070 1.000      1.719  23.000
 1830 3.080 2.680  3.480 1.000 1.00000 3.080 1.000      2.741  23.000
 1831 3.130 2.725  3.535 1.000 1.00000 3.130 1.000     10.804  23.000
 1832 3.070 2.671  3.469 1.000 1.00000 3.070 1.000      8.447  23.000
 1833 3.110 2.707  3.513 1.000 1.00000 3.110 1.000      7.439  23.000
 1834 3.100 2.698  3.502 1.000 1.00000 3.100 1.000     27.963  23.000
 1835 3.090 2.689  3.491 1.000 1.00000 3.090 1.000      3.310  23.000
 1836 3.100 2.698  3.502 1.000 1.00000 3.100 1.000      4.110  23.000
 1837 3.100 2.698  3.502 1.000 1.00000 3.100 1.000      9.461  23.000
 1838 3.080 2.680  3.480 1.000 1.00000 3.080 1.000      9.836  23.000
 1839 3.080 2.680  3.480 1.000 1.00000 3.080 1.000      7.628  23.000
 1840 3.080 2.680  3.480 1.000 1.00000 3.080 1.000     20.024  23.000
 1841 3.100 2.698  3.502 1.000 1.00000 3.100 1.000     19.935  23.000
 1842 3.100 2.698  3.502 1.000 1.00000 3.100 1.000      7.792  23.000
 1843 3.070 2.671  3.469 1.000 1.00000 3.070 1.000      3.094  23.000
 1844 3.090 2.689  3.491 1.000 1.00000 3.090 1.000      6.963  23.000
 1845 3.100 2.698  3.502 1.000 1.00000 3.100 1.000     11.939  23.000
 1846 3.100 2.698  3.502 1.000 1.00000 3.100 1.000      6.124  23.000
 1847 3.050 2.653  3.447 1.000 1.00000 3.050 1.000      1.708  23.000
 1848 3.080 2.680  3.480 1.000 1.00000 3.080 1.000      8.186  23.000
 1849 3.090 2.689  3.491 1.000 1.00000 3.090 1.000     10.622  23.000
 1850 3.100 2.698  3.502 1.000 1.00000 3.100 1.000      8.607  23.000
 1851 3.080 2.680  3.480 1.000 1.00000 3.080 1.000     19.874  23.000
 1852 3.090 2.689  3.491 1.000 1.00000 3.090 1.000      9.811  23.000
 1853 3.070 2.671  3.469 1.000 1.00000 3.070 1.000     14.787  23.000
 1854 3.080 2.680  3.480 1.000 1.00000 3.080 1.000      4.267  23.000
 1855 3.080 2.680  3.480 1.000 1.00000 3.080 1.000      2.108  23.000
 1856 3.100 2.698  3.502 1.000 1.00000 3.100 1.000      4.467  23.000
 1857 3.100 2.698  3.502 1.000 1.00000 3.100 1.000      4.800  23.000
 1858 3.090 2.689  3.491 1.000 1.00000 3.090 1.000     10.932  23.000
 1859 3.070 2.671  3.469 1.000 1.00000 3.070 1.000      4.160  23.000
 1860 3.080 2.680  3.480 1.000 1.00000 3.080 1.000     12.594  23.000
 1861 3.130 2.725  3.535 1.000 1.00000 3.130 1.000     16.582  23.000
 1862 3.090 2.689  3.491 1.000 1.00000 3.090 1.000     12.296  23.000
 1863 3.080 2.680  3.480 1.000 1.00000 3.080 1.000     19.851  23.000
 1864 3.060 2.662  3.458 1.000 1.00000 3.060 1.000      7.490  23.000
 1865 3.090 2.689  3.491 1.000 1.00000 3.090 1.000      3.296  23.000
 1866 3.140 2.734  3.546 1.000 1.00000 3.140 1.000     13.308  23.000
 1867 3.110 2.707  3.513 1.000 1.00000 3.110 1.000      9.514  23.000
 1868 3.100 2.698  3.502 1.000 1.00000 3.100 1.000     30.421  23.000
 1869 3.070 2.671  3.469 1.000 1.00000 3.070 1.000      7.297  23.000
 1870 3.070 2.671  3.469 1.000 1.00000 3.070 1.000      4.625  23.000
 1871 3.110 2.707  3.513 1.000 1.00000 3.110 1.000      6.500  23.000
 1872 3.080 2.680  3.480 1.000 1.00000 3.080 1.000      2.249  23.000
 1873 3.050 2.653  3.447 1.000 1.00000 3.050 1.000      2.762  23.000
 1874 3.070 2.671  3.469 1.000 1.00000 3.070 1.000      9.564  23.000
 1875 3.090 2.689  3.491 1.000 1.00000 3.090 1.000      9.203  23.000
 1876 3.080 2.680  3.480 1.000 1.00000 3.080 1.000      3.680  23.000
 1877 3.050 2.653  3.447 1.000 1.00000 3.050 1.000      1.460  23.000
 1878 3.080 2.680  3.480 1.000 1.00000 3.080 1.000      7.220  23.000
 1879 3.140 2.734  3.546 1.000 1.00000 3.140 1.000     11.238  23.000
 1880 3.090 2.689  3.491 1.000 1.00000 3.090 1.000      2.947  23.000
 1881 3.070 2.671  3.469 1.000 1.00000 3.070 1.000      5.605  23.000
 1882 3.150 2.743  3.557 1.000 1.00000 3.150 1.000     14.544  23.000
 1883 3.090 2.689  3.491 1.000 1.00000 3.090 1.000      4.310  23.000
 1884 3.100 2.698  3.502 1.000 1.00000 3.100 1.000      4.831  23.000
 1885 3.060 2.662  3.458 1.000 1.00000 3.060 1.000      3.188  23.000
 1886 3.040 2.644  3.436 1.000 1.00000 3.040 1.000      1.829  23.000
 1887 3.060 2.662  3.458 1.000 1.00000 3.060 1.000     13.247  23.000
 1888 3.100 2.698  3.502 1.000 1.00000 3.100 1.000      5.992  23.000
 1889 3.080 2.680  3.480 1.000 1.00000 3.080 1.000     36.730  23.000
 1890 3.070 2.671  3.469 1.000 1.00000 3.070 1.000      1.638  23.000
 1891 3.110 2.707  3.513 1.000 1.00000 3.110 1.000     12.505  23.000
 1892 3.090 2.689  3.491 1.000 1.00000 3.090 1.000      8.128  23.000
 1893 3.080 2.680  3.480 1.000 1.00000 3.080 1.000      3.180  23.000
 1894 3.090 2.689  3.491 1.000 1.00000 3.090 1.000      5.884  23.000
 1895 3.060 2.662  3.458 1.000 1.00000 3.060 1.000     24.505  23.000
 1896 3.080 2.680  3.480 1.000 1.00000 3.080 1.000     12.537  23.000
 1897 3.050 2.653  3.447 1.000 1.00000 3.050 1.000      2.588  23.000
 1898 3.080 2.680  3.480 1.000 1.00000 3.080 1.000     27.085  23.000
 1899 3.120 2.716  3.524 1.000 1.00000 3.120 1.000      8.009  23.000
 1900 3.070 2.671  3.469 1.000 1.00000 3.070 1.000      4.000  23.000
 1901 3.090 2.689  3.491 1.000 1.00000 3.090 1.000      7.234  23.000
 1902 3.120 2.716  3.524 1.000 1.00000 3.120 1.000     10.232  23.000
 1903 3.080 2.680  3.480 1.000 1.00000 3.080 1.000     12.807  23.000
 1904 3.080 2.680  3.480 1.000 1.00000 3.080 1.000      5.302  23.000
 1905 3.110 2.707  3.513 1.000 1.00000 3.110 1.000      5.602  23.000
 1906 3.080 2.680  3.480 1.000 1.00000 3.080 1.000      7.504  23.000
 1907 3.090 2.689  3.491 1.000 1.00000 3.090 1.000      7.464  23.000
 1908 3.090 2.689  3.491 1.000 1.00000 3.090 1.000      5.429  23.000
 1909 3.040 2.644  3.436 1.000 1.00000 3.040 1.000      8.702  23.000
 1910 3.100 2.698  3.502 1.000 1.00000 3.100 1.000      7.618  23.000
 1911 3.130 2.725  3.535 1.000 1.00000 3.130 1.000     20.654  23.000
 1912 3.100 2.698  3.502 1.000 1.00000 3.100 1.000      5.276  23.000
 1913 3.100 2.698  3.502 1.000 1.00000 3.100 1.000     22.051  23.000
 1914 3.120 2.716  3.524 1.000 1.00000 3.120 1.000      6.341  23.000
 1915 3.070 2.671  3.469 1.000 1.00000 3.070 1.000      6.294  23.000
 1916 3.100 2.698  3.502 1.000 1.00000 3.100 1.000     13.915  23.000
 1917 3.060 2.662  3.458 1.000 1.00000 3.060 1.000      3.481  23.000
 1918 3.070 2.671  3.469 1.000 1.00000 3.070 1.000     26.568  23.000
 1919 3.110 2.707  3.513 1.000 1.00000 3.110 1.000      9.185  23.000
 1920 3.130 2.725  3.535 1.000 1.00000 3.130 1.000     11.350  23.000
 1921 3.090 2.689  3.491 1.000 1.00000 3.090 1.000      4.129  23.000
 1922 3.050 2.653  3.447 1.000 1.00000 3.050 1.000     31.563  23.000
 1923 3.080 2.680  3.480 1.000 1.00000 3.080 1.000      9.982  23.000
 1924 3.080 2.680  3.480 1.000 1.00000 3.080 1.000      6.002  23.000
 1925 3.060 2.662  3.458 1.000 1.00000 3.060 1.000      3.538  23.000
 1926 3.100 2.698  3.502 1.000 1.00000 3.100 1.000     14.709  23.000
 1927 3.070 2.671  3.469 1.000 1.00000 3.070 1.000      1.818  23.000
 1928 3.070 2.671  3.469 1.000 1.00000 3.070 1.000     11.304  23.000
 1929 3.080 2.680  3.480 1.000 1.00000 3.080 1.000      5.442  23.000
 1930 3.130 2.725  3.535 1.000 1.00000 3.130 1.000     11.675  23.000
 1931 3.080 2.680  3.480 1.000 1.00000 3.080 1.000      2.475  23.000
 1932 3.100 2.698  3.502 1.000 1.00000 3.100 1.000      8.712  23.000
 1933 3.160 2.752  3.568 1.000 1.00000 3.160 1.000     38.547  23.000
 1934 3.090 2.689  3.491 1.000 1.00000 3.090 1.000      5.906  23.000
 1935 3.070 2.671  3.469 1.000 1.00000 3.070 1.000      7.886  23.000
 1936 3.120 2.716  3.524 1.000 1.00000 3.120 1.000     17.350  23.000
 1937 3.090 2.689  3.491 1.000 1.00000 3.090 1.000     17.106  23.000
 1938 3.080 2.680  3.480 1.000 1.00000 3.080 1.000      3.919  23.000
 1939 3.120 2.716  3.524 1.000 1.00000 3.120 1.000     14.936  23.000
 1940 3.080 2.680  3.480 1.000 1.00000 3.080 1.000      2.116  23.000
 1941 3.110 2.707  3.513 1.000 1.00000 3.110 1.000      6.754  23.000
 1942 3.080 2.680  3.480 1.000 1.00000 3.080 1.000      6.434  23.000
 1943 3.070 2.671  3.469 1.000 1.00000 3.070 1.000      2.289  23.000
 1944 3.080 2.680  3.480 1.000 1.00000 3.080 1.000     13.089  23.000
 1945 3.090 2.689  3.491 1.000 1.00000 3.090 1.000      6.133  23.000
 1946 3.090 2.689  3.491 1.000 1.00000 3.090 1.000      4.494  23.000
 1947 3.120 2.716  3.524 1.000 1.00000 3.120 1.000      8.020  23.000
 1948 3.060 2.662  3.458 1.000 1.00000 3.060 1.000      3.633  23.000
 1949 3.060 2.662  3.458 1.000 1.00000 3.060 1.000      2.272  23.000
 1950 3.100 2.698  3.502 1.000 1.00000 3.100 1.000     30.582  23.000
 1951 3.070 2.671  3.469 1.000 1.00000 3.070 1.000      5.953  23.000
 1952 3.070 2.671  3.469 1.000 1.00000 3.070 1.000     12.525  23.000
 1953 3.100 2.698  3.502 1.000 1.00000 3.100 1.000      4.091  23.000
 1954 3.120 2.716  3.524 1.000 1.00000 3.120 1.000      9.826  23.000
 1955 3.100 2.698  3.502 1.000 1.00000 3.100 1.000      7.482  23.000
 1956 3.100 2.698  3.502 1.000 1.00000 3.100 1.000      5.266  23.000
 1957 3.080 2.680  3.480 1.000 1.00000 3.080 1.000      7.071  23.000
 1958 3.080 2.680  3.480 1.000 1.00000 3.080 1.000      6.598  23.000
 1959 3.120 2.716  3.524 1.000 1.00000 3.120 1.000      6.338  23.000
 1960 3.090 2.689  3.491 1.000 1.00000 3.090 1.000     32.140  23.000
 1961 3.070 2.671  3.469 1.000 1.00000 3.070 1.000     26.123  23.000
 1962 3.060 2.662  3.458 1.000 1.00000 3.060 1.000     18.166  23.000
 1963 3.100 2.698  3.502 1.000 1.00000 3.100 1.000      7.021  23.000
 1964 3.080 2.680  3.480 1.000 1.00000 3.080 1.000      3.366  23.000
 1965 3.060 2.662  3.458 1.000 1.00000 3.060 1.000      5.646  23.000
 1966 3.120 2.716  3.524 1.000 1.00000 3.120 1.000     10.403  23.000
 1967 3.100 2.698  3.502 1.000 1.00000 3.100 1.000      7.256  23.000
 1968 3.080 2.680  3.480 1.000 1.00000 3.080 1.000     19.679  23.000
 1969 3.080 2.680  3.480 1.000 1.00000 3.080 1.000      5.321  23.000
 1970 3.070 2.671  3.469 1.000 1.00000 3.070 1.000      7.253  23.000
 1971 3.060 2.662  3.458 1.000 1.00000 3.060 1.000      9.546  23.000
 1972 3.120 2.716  3.524 1.000 1.00000 3.120 1.000     26.552  23.000
 1973 3.080 2.680  3.480 1.000 1.00000 3.080 1.000      5.540  23.000
 1974 3.080 2.680  3.480 1.000 1.00000 3.080 1.000      4.091  23.000
 1975 3.090 2.689  3.491 1.000 1.00000 3.090 1.000      3.241  23.000
 1976 3.060 2.662  3.458 1.000 1.00000 3.060 1.000      2.608  23.000
 1977 3.110 2.707  3.513 1.000 1.00000 3.110 1.000     10.685  23.000
 1978 3.080 2.680  3.480 1.000 1.00000 3.080 1.000      5.355  23.000
 1979 3.090 2.689  3.491 1.000 1.00000 3.090 1.000      4.207  23.000
 1980 3.090 2.689  3.491 1.000 1.00000 3.090 1.000      5.114  23.000
 1981 3.070 2.671  3.469 1.000 1.00000 3.070 1.000      3.732  23.000
 1982 3.090 2.689  3.491 1.000 1.00000 3.090 1.000      7.095  23.000
 1983 3.120 2.716  3.524 1.000 1.00000 3.120 1.000     18.554  23.000
 1984 3.080 2.680  3.480 1.000 1.00000 3.080 1.000      3.758  23.000
 1985 3.080 2.680  3.480 1.000 1.00000 3.080 1.000     12.552  23.000
 1986 3.080 2.680  3.480 1.000 1.00000 3.080 1.000      2.674  23.000
 1987 3.100 2.698  3.502 1.000 1.00000 3.100 1.000      5.365  23.000
 1988 3.050 2.653  3.447 1.000 1.00000 3.050 1.000     10.944  23.000
 1989 3.090 2.689  3.491 1.000 1.00000 3.090 1.000      7.384  23.000
 1990 3.080 2.680  3.480 1.000 1.00000 3.080 1.000      6.842  23.000
 1991 3.070 2.671  3.469 1.000 1.00000 3.070 1.000      2.664  23.000
 1992 3.080 2.680  3.480 1.000 1.00000 3.080 1.000      5.152  23.000
 1993 3.060 2.662  3.458 1.000 1.00000 3.060 1.000      2.589  23.000
 1994 3.080 2.680  3.480 1.000 1.00000 3.080 1.000     20.393  23.000
 1995 3.080 2.680  3.480 1.000 1.00000 3.080 1.000      4.715  23.000
 1996 3.100 2.698  3.502 1.000 1.00000 3.100 1.000     12.524  23.000
 1997 3.070 2.671  3.469 1.000 1.00000 3.070 1.000      4.880  23.000
 1998 3.090 2.689  3.491 1.000 1.00000 3.090 1.000      5.950  23.000
 1999 3.090 2.689  3.491 1.000 1.00000 3.090 1.000      7.387  23.000
 2000 3.100 2.698  3.502 1.000 1.00000 3.100 1.000      6.217  23.000
