## File LOS/SB2_B2004a_2.9z_Mags_1300.bpz  Sat Aug 13 01:33:31 2016
##
##Parameters used to run BPZ:
##
##AB_DIR=/home/lidenscheng/bpz-1.99.3//AB/
##ADD_CONTINUOUS_PROB=None
##ADD_SPEC_PROB=None
##CHECK=LOS/SB2_B2004a_2.9z_Mags_1300.flux_comparison
##COLOR=no
##COLUMNS=losNoErrors.columns
##CONVOLVE_P=yes
##DELTA_M_0=0.0
##DZ=0.01
##EXCLUDE=none
##FC=None
##FILTER_DIR=/home/lidenscheng/MK_DirectSim/filters/
##GET_Z=yes
##INPUT=LOS/SB2_B2004a_2.9z_Mags_1300.txt
##INTERACTIVE=yes
##INTERP=0
##MADAU=no
##MAG=yes
##MEAN_IGM=yes
##MERGE_PEAKS=no
##MIN_MAGERR=0.001
##MIN_RMS=0.05
##NEW_AB=no
##NMAX=None
##NTYPES=None
##N_PEAKS=1
##ODDS=0.95
##ONLY_TYPE=no
##OUTPUT=LOS/SB2_B2004a_2.9z_Mags_1300.bpz
##PHOTO_ERRORS=no
##PLOTS=no
##PRIOR=none
##PROBS=no
##PROBS2=no
##PROBS_LITE=LOS/SB2_B2004a_2.9z_Mags_1300.probs
##P_MIN=0.01
##SED_DIR=/home/lidenscheng/MK_DirectSim/SEDs/
##SPECTRA=SB2.list
##VERBOSE=yes
##ZC=None
##ZMAX=10.0
##ZMIN=0.01
##ZP_OFFSETS=0.0
##Z_THR=0
##
##Column information
##
# 1 ID
# 2 Z_B
# 3 Z_B_MIN
# 4 Z_B_MAX
# 5 T_B
# 6 ODDS    
# 7 Z_ML
# 8 T_ML
# 9 CHI-SQUARED
# 10 M_0
##
    1 3.000 2.608  3.392 1.000 1.00000 3.000 1.000     36.205  23.000
    2 2.970 2.581  3.359 1.000 1.00000 2.970 1.000     24.193  23.000
    3 3.040 2.644  3.436 1.000 1.00000 3.040 1.000     23.886  23.000
    4 2.950 2.563  3.337 1.000 1.00000 2.950 1.000     12.434  23.000
    5 2.990 2.599  3.381 1.000 1.00000 2.990 1.000     17.881  23.000
    6 2.990 2.599  3.381 1.000 1.00000 2.990 1.000     13.585  23.000
    7 3.000 2.608  3.392 1.000 1.00000 3.000 1.000     19.441  23.000
    8 2.950 2.563  3.337 1.000 1.00000 2.950 1.000     10.987  23.000
    9 2.980 2.590  3.370 1.000 1.00000 2.980 1.000     22.852  23.000
   10 3.020 2.626  3.414 1.000 1.00000 3.020 1.000     46.860  23.000
   11 3.010 2.617  3.403 1.000 1.00000 3.010 1.000      8.669  23.000
   12 2.960 2.572  3.348 1.000 1.00000 2.960 1.000     24.454  23.000
   13 2.940 2.554  3.326 1.000 1.00000 2.940 1.000     10.603  23.000
   14 2.980 2.590  3.370 1.000 1.00000 2.980 1.000     31.649  23.000
   15 3.010 2.617  3.403 1.000 1.00000 3.010 1.000     11.564  23.000
   16 3.010 2.617  3.403 1.000 1.00000 3.010 1.000     35.088  23.000
   17 3.030 2.635  3.425 1.000 1.00000 3.030 1.000     48.679  23.000
   18 2.950 2.563  3.337 1.000 1.00000 2.950 1.000      3.450  23.000
   19 2.960 2.572  3.348 1.000 1.00000 2.960 1.000      3.516  23.000
   20 2.970 2.581  3.359 1.000 1.00000 2.970 1.000     13.944  23.000
   21 3.010 2.617  3.403 1.000 1.00000 3.010 1.000     19.387  23.000
   22 2.990 2.599  3.381 1.000 1.00000 2.990 1.000      7.328  23.000
   23 3.000 2.608  3.392 1.000 1.00000 3.000 1.000     14.418  23.000
   24 3.070 2.671  3.469 1.000 1.00000 3.070 1.000     33.645  23.000
   25 3.010 2.617  3.403 1.000 1.00000 3.010 1.000     10.040  23.000
   26 2.980 2.590  3.370 1.000 1.00000 2.980 1.000     10.971  23.000
   27 3.040 2.644  3.436 1.000 1.00000 3.040 1.000     29.164  23.000
   28 3.000 2.608  3.392 1.000 1.00000 3.000 1.000     16.387  23.000
   29 2.950 2.563  3.337 1.000 1.00000 2.950 1.000      2.504  23.000
   30 2.970 2.581  3.359 1.000 1.00000 2.970 1.000      9.464  23.000
   31 2.980 2.590  3.370 1.000 1.00000 2.980 1.000     21.532  23.000
   32 2.950 2.563  3.337 1.000 1.00000 2.950 1.000      5.331  23.000
   33 3.020 2.626  3.414 1.000 1.00000 3.020 1.000     13.620  23.000
   34 2.960 2.572  3.348 1.000 1.00000 2.960 1.000     15.286  23.000
   35 3.000 2.608  3.392 1.000 1.00000 3.000 1.000      5.815  23.000
   36 2.980 2.590  3.370 1.000 1.00000 2.980 1.000     16.220  23.000
   37 2.990 2.599  3.381 1.000 1.00000 2.990 1.000     22.129  23.000
   38 3.030 2.635  3.425 1.000 1.00000 3.030 1.000     26.356  23.000
   39 3.000 2.608  3.392 1.000 1.00000 3.000 1.000     20.576  23.000
   40 2.970 2.581  3.359 1.000 1.00000 2.970 1.000     15.384  23.000
   41 2.960 2.572  3.348 1.000 1.00000 2.960 1.000     16.953  23.000
   42 3.000 2.608  3.392 1.000 1.00000 3.000 1.000     14.673  23.000
   43 3.000 2.608  3.392 1.000 1.00000 3.000 1.000     42.076  23.000
   44 3.000 2.608  3.392 1.000 1.00000 3.000 1.000     19.525  23.000
   45 2.970 2.581  3.359 1.000 1.00000 2.970 1.000      4.640  23.000
   46 3.050 2.653  3.447 1.000 1.00000 3.050 1.000     48.258  23.000
   47 2.990 2.599  3.381 1.000 1.00000 2.990 1.000      6.263  23.000
   48 3.000 2.608  3.392 1.000 1.00000 3.000 1.000     11.665  23.000
   49 3.040 2.644  3.436 1.000 1.00000 3.040 1.000     55.268  23.000
   50 2.960 2.572  3.348 1.000 1.00000 2.960 1.000      7.304  23.000
   51 2.970 2.581  3.359 1.000 1.00000 2.970 1.000     14.233  23.000
   52 2.960 2.572  3.348 1.000 1.00000 2.960 1.000     10.572  23.000
   53 3.010 2.617  3.403 1.000 1.00000 3.010 1.000     13.777  23.000
   54 3.000 2.608  3.392 1.000 1.00000 3.000 1.000      8.229  23.000
   55 2.960 2.572  3.348 1.000 1.00000 2.960 1.000     12.987  23.000
   56 3.000 2.608  3.392 1.000 1.00000 3.000 1.000     25.276  23.000
   57 3.000 2.608  3.392 1.000 1.00000 3.000 1.000     10.945  23.000
   58 2.960 2.572  3.348 1.000 1.00000 2.960 1.000     16.184  23.000
   59 3.060 2.662  3.458 1.000 1.00000 3.060 1.000     38.012  23.000
   60 2.970 2.581  3.359 1.000 1.00000 2.970 1.000     32.851  23.000
   61 2.970 2.581  3.359 1.000 1.00000 2.970 1.000     21.985  23.000
   62 2.950 2.563  3.337 1.000 1.00000 2.950 1.000      3.099  23.000
   63 2.960 2.572  3.348 1.000 1.00000 2.960 1.000     17.822  23.000
   64 3.020 2.626  3.414 1.000 1.00000 3.020 1.000     15.046  23.000
   65 2.960 2.572  3.348 1.000 1.00000 2.960 1.000     27.977  23.000
   66 3.000 2.608  3.392 1.000 1.00000 3.000 1.000     15.311  23.000
   67 2.980 2.590  3.370 1.000 1.00000 2.980 1.000     42.439  23.000
   68 2.950 2.563  3.337 1.000 1.00000 2.950 1.000     27.702  23.000
   69 2.980 2.590  3.370 1.000 1.00000 2.980 1.000     11.360  23.000
   70 2.980 2.590  3.370 1.000 1.00000 2.980 1.000     18.416  23.000
   71 2.970 2.581  3.359 1.000 1.00000 2.970 1.000     18.957  23.000
   72 2.960 2.572  3.348 1.000 1.00000 2.960 1.000     24.270  23.000
   73 2.950 2.563  3.337 1.000 1.00000 2.950 1.000     16.738  23.000
   74 3.000 2.608  3.392 1.000 1.00000 3.000 1.000     23.162  23.000
   75 2.980 2.590  3.370 1.000 1.00000 2.980 1.000     31.480  23.000
   76 3.030 2.635  3.425 1.000 1.00000 3.030 1.000     19.366  23.000
   77 2.980 2.590  3.370 1.000 1.00000 2.980 1.000      4.961  23.000
   78 2.980 2.590  3.370 1.000 1.00000 2.980 1.000      7.775  23.000
   79 3.000 2.608  3.392 1.000 1.00000 3.000 1.000     12.725  23.000
   80 2.980 2.590  3.370 1.000 1.00000 2.980 1.000      5.994  23.000
   81 2.970 2.581  3.359 1.000 1.00000 2.970 1.000     42.998  23.000
   82 3.070 2.671  3.469 1.000 1.00000 3.070 1.000     26.862  23.000
   83 3.000 2.608  3.392 1.000 1.00000 3.000 1.000     12.912  23.000
   84 2.990 2.599  3.381 1.000 1.00000 2.990 1.000      6.865  23.000
   85 2.960 2.572  3.348 1.000 1.00000 2.960 1.000     23.684  23.000
   86 2.990 2.599  3.381 1.000 1.00000 2.990 1.000     11.851  23.000
   87 2.990 2.599  3.381 1.000 1.00000 2.990 1.000     18.955  23.000
   88 3.000 2.608  3.392 1.000 1.00000 3.000 1.000     51.191  23.000
   89 2.970 2.581  3.359 1.000 1.00000 2.970 1.000      3.935  23.000
   90 3.030 2.635  3.425 1.000 1.00000 3.030 1.000     21.710  23.000
   91 3.010 2.617  3.403 1.000 1.00000 3.010 1.000     22.313  23.000
   92 2.950 2.563  3.337 1.000 1.00000 2.950 1.000     15.765  23.000
   93 3.010 2.617  3.403 1.000 1.00000 3.010 1.000     15.051  23.000
   94 2.990 2.599  3.381 1.000 1.00000 2.990 1.000     31.206  23.000
   95 3.000 2.608  3.392 1.000 1.00000 3.000 1.000     15.990  23.000
   96 2.990 2.599  3.381 1.000 1.00000 2.990 1.000     15.904  23.000
   97 2.950 2.563  3.337 1.000 1.00000 2.950 1.000     11.231  23.000
   98 3.010 2.617  3.403 1.000 1.00000 3.010 1.000     17.185  23.000
   99 3.010 2.617  3.403 1.000 1.00000 3.010 1.000     34.212  23.000
  100 3.030 2.635  3.425 1.000 1.00000 3.030 1.000     16.510  23.000
  101 2.990 2.599  3.381 1.000 1.00000 2.990 1.000     12.482  23.000
  102 3.000 2.608  3.392 1.000 1.00000 3.000 1.000     18.077  23.000
  103 2.950 2.563  3.337 1.000 1.00000 2.950 1.000      7.156  23.000
  104 2.960 2.572  3.348 1.000 1.00000 2.960 1.000     13.737  23.000
  105 2.940 2.554  3.326 1.000 1.00000 2.940 1.000      3.294  23.000
  106 2.960 2.572  3.348 1.000 1.00000 2.960 1.000     21.556  23.000
  107 2.980 2.590  3.370 1.000 1.00000 2.980 1.000     21.204  23.000
  108 3.020 2.626  3.414 1.000 1.00000 3.020 1.000     24.129  23.000
  109 2.970 2.581  3.359 1.000 1.00000 2.970 1.000      9.622  23.000
  110 3.010 2.617  3.403 1.000 1.00000 3.010 1.000      7.292  23.000
  111 2.950 2.563  3.337 1.000 1.00000 2.950 1.000      7.128  23.000
  112 2.980 2.590  3.370 1.000 1.00000 2.980 1.000     45.862  23.000
  113 2.980 2.590  3.370 1.000 1.00000 2.980 1.000     13.506  23.000
  114 2.960 2.572  3.348 1.000 1.00000 2.960 1.000     15.242  23.000
  115 2.980 2.590  3.370 1.000 1.00000 2.980 1.000     18.488  23.000
  116 3.030 2.635  3.425 1.000 1.00000 3.030 1.000     10.504  23.000
  117 3.010 2.617  3.403 1.000 1.00000 3.010 1.000     25.705  23.000
  118 3.020 2.626  3.414 1.000 1.00000 3.020 1.000     15.965  23.000
  119 3.010 2.617  3.403 1.000 1.00000 3.010 1.000     12.533  23.000
  120 3.070 2.671  3.469 1.000 1.00000 3.070 1.000     63.320  23.000
  121 3.010 2.617  3.403 1.000 1.00000 3.010 1.000     26.256  23.000
  122 2.980 2.590  3.370 1.000 1.00000 2.980 1.000     40.596  23.000
  123 2.970 2.581  3.359 1.000 1.00000 2.970 1.000     11.645  23.000
  124 3.040 2.644  3.436 1.000 1.00000 3.040 1.000     29.173  23.000
  125 3.050 2.653  3.447 1.000 1.00000 3.050 1.000     32.771  23.000
  126 2.980 2.590  3.370 1.000 1.00000 2.980 1.000     32.482  23.000
  127 3.100 2.698  3.502 1.000 1.00000 3.100 1.000     71.690  23.000
  128 3.000 2.608  3.392 1.000 1.00000 3.000 1.000     26.662  23.000
  129 2.950 2.563  3.337 1.000 1.00000 2.950 1.000      9.408  23.000
  130 2.990 2.599  3.381 1.000 1.00000 2.990 1.000      7.681  23.000
  131 2.960 2.572  3.348 1.000 1.00000 2.960 1.000     31.866  23.000
  132 2.980 2.590  3.370 1.000 1.00000 2.980 1.000     25.056  23.000
  133 2.990 2.599  3.381 1.000 1.00000 2.990 1.000     41.406  23.000
  134 2.960 2.572  3.348 1.000 1.00000 2.960 1.000      8.045  23.000
  135 3.060 2.662  3.458 1.000 1.00000 3.060 1.000     36.088  23.000
  136 2.970 2.581  3.359 1.000 1.00000 2.970 1.000     26.715  23.000
  137 2.950 2.563  3.337 1.000 1.00000 2.950 1.000     10.809  23.000
  138 2.970 2.581  3.359 1.000 1.00000 2.970 1.000     10.799  23.000
  139 2.990 2.599  3.381 1.000 1.00000 2.990 1.000     31.021  23.000
  140 3.000 2.608  3.392 1.000 1.00000 3.000 1.000     25.709  23.000
  141 2.960 2.572  3.348 1.000 1.00000 2.960 1.000     16.376  23.000
  142 3.000 2.608  3.392 1.000 1.00000 3.000 1.000     24.284  23.000
  143 3.000 2.608  3.392 1.000 1.00000 3.000 1.000      7.858  23.000
  144 2.960 2.572  3.348 1.000 1.00000 2.960 1.000     14.624  23.000
  145 3.030 2.635  3.425 1.000 1.00000 3.030 1.000     18.452  23.000
  146 2.980 2.590  3.370 1.000 1.00000 2.980 1.000     16.879  23.000
  147 2.950 2.563  3.337 1.000 1.00000 2.950 1.000      5.436  23.000
  148 3.000 2.608  3.392 1.000 1.00000 3.000 1.000     30.809  23.000
  149 2.990 2.599  3.381 1.000 1.00000 2.990 1.000     11.838  23.000
  150 2.980 2.590  3.370 1.000 1.00000 2.980 1.000      5.427  23.000
  151 2.970 2.581  3.359 1.000 1.00000 2.970 1.000     29.270  23.000
  152 2.990 2.599  3.381 1.000 1.00000 2.990 1.000     15.054  23.000
  153 2.960 2.572  3.348 1.000 1.00000 2.960 1.000      3.232  23.000
  154 2.970 2.581  3.359 1.000 1.00000 2.970 1.000      7.938  23.000
  155 2.960 2.572  3.348 1.000 1.00000 2.960 1.000     36.361  23.000
  156 2.970 2.581  3.359 1.000 1.00000 2.970 1.000     10.048  23.000
  157 2.970 2.581  3.359 1.000 1.00000 2.970 1.000     32.350  23.000
  158 3.000 2.608  3.392 1.000 1.00000 3.000 1.000     43.523  23.000
  159 3.020 2.626  3.414 1.000 1.00000 3.020 1.000     43.233  23.000
  160 3.000 2.608  3.392 1.000 1.00000 3.000 1.000     16.040  23.000
  161 3.010 2.617  3.403 1.000 1.00000 3.010 1.000     10.046  23.000
  162 3.000 2.608  3.392 1.000 1.00000 3.000 1.000     35.257  23.000
  163 3.000 2.608  3.392 1.000 1.00000 3.000 1.000     10.317  23.000
  164 3.040 2.644  3.436 1.000 1.00000 3.040 1.000     32.709  23.000
  165 3.000 2.608  3.392 1.000 1.00000 3.000 1.000     11.618  23.000
  166 2.950 2.563  3.337 1.000 1.00000 2.950 1.000     10.333  23.000
  167 3.010 2.617  3.403 1.000 1.00000 3.010 1.000      7.878  23.000
  168 2.980 2.590  3.370 1.000 1.00000 2.980 1.000     13.231  23.000
  169 2.960 2.572  3.348 1.000 1.00000 2.960 1.000     13.787  23.000
  170 2.980 2.590  3.370 1.000 1.00000 2.980 1.000      9.179  23.000
  171 2.990 2.599  3.381 1.000 1.00000 2.990 1.000     57.353  23.000
  172 2.950 2.563  3.337 1.000 1.00000 2.950 1.000     15.380  23.000
  173 3.010 2.617  3.403 1.000 1.00000 3.010 1.000     22.513  23.000
  174 2.950 2.563  3.337 1.000 1.00000 2.950 1.000      9.823  23.000
  175 2.980 2.590  3.370 1.000 1.00000 2.980 1.000      6.936  23.000
  176 2.990 2.599  3.381 1.000 1.00000 2.990 1.000      5.780  23.000
  177 3.010 2.617  3.403 1.000 1.00000 3.010 1.000     14.486  23.000
  178 3.000 2.608  3.392 1.000 1.00000 3.000 1.000      9.733  23.000
  179 2.970 2.581  3.359 1.000 1.00000 2.970 1.000      8.464  23.000
  180 2.960 2.572  3.348 1.000 1.00000 2.960 1.000      6.737  23.000
  181 3.020 2.626  3.414 1.000 1.00000 3.020 1.000     18.651  23.000
  182 2.970 2.581  3.359 1.000 1.00000 2.970 1.000     21.378  23.000
  183 2.990 2.599  3.381 1.000 1.00000 2.990 1.000     21.481  23.000
  184 2.980 2.590  3.370 1.000 1.00000 2.980 1.000      4.001  23.000
  185 3.020 2.626  3.414 1.000 1.00000 3.020 1.000     11.877  23.000
  186 3.000 2.608  3.392 1.000 1.00000 3.000 1.000     23.861  23.000
  187 3.010 2.617  3.403 1.000 1.00000 3.010 1.000     14.982  23.000
  188 2.960 2.572  3.348 1.000 1.00000 2.960 1.000      3.920  23.000
  189 2.960 2.572  3.348 1.000 1.00000 2.960 1.000      2.538  23.000
  190 2.980 2.590  3.370 1.000 1.00000 2.980 1.000      6.686  23.000
  191 2.980 2.590  3.370 1.000 1.00000 2.980 1.000     12.976  23.000
  192 2.970 2.581  3.359 1.000 1.00000 2.970 1.000     22.171  23.000
  193 2.960 2.572  3.348 1.000 1.00000 2.960 1.000     18.905  23.000
  194 2.970 2.581  3.359 1.000 1.00000 2.970 1.000     18.283  23.000
  195 2.970 2.581  3.359 1.000 1.00000 2.970 1.000      6.747  23.000
  196 3.040 2.644  3.436 1.000 1.00000 3.040 1.000     40.997  23.000
  197 2.960 2.572  3.348 1.000 1.00000 2.960 1.000      5.747  23.000
  198 3.010 2.617  3.403 1.000 1.00000 3.010 1.000     20.468  23.000
  199 3.000 2.608  3.392 1.000 1.00000 3.000 1.000     18.994  23.000
  200 2.970 2.581  3.359 1.000 1.00000 2.970 1.000      9.369  23.000
  201 3.000 2.608  3.392 1.000 1.00000 3.000 1.000     17.249  23.000
  202 2.970 2.581  3.359 1.000 1.00000 2.970 1.000     27.147  23.000
  203 2.990 2.599  3.381 1.000 1.00000 2.990 1.000      7.308  23.000
  204 3.020 2.626  3.414 1.000 1.00000 3.020 1.000     11.347  23.000
  205 3.020 2.626  3.414 1.000 1.00000 3.020 1.000     14.253  23.000
  206 3.000 2.608  3.392 1.000 1.00000 3.000 1.000     27.872  23.000
  207 3.000 2.608  3.392 1.000 1.00000 3.000 1.000     42.392  23.000
  208 3.050 2.653  3.447 1.000 1.00000 3.050 1.000     44.648  23.000
  209 2.980 2.590  3.370 1.000 1.00000 2.980 1.000      8.808  23.000
  210 3.020 2.626  3.414 1.000 1.00000 3.020 1.000     56.096  23.000
  211 2.990 2.599  3.381 1.000 1.00000 2.990 1.000     10.530  23.000
  212 3.010 2.617  3.403 1.000 1.00000 3.010 1.000     11.737  23.000
  213 3.010 2.617  3.403 1.000 1.00000 3.010 1.000     48.377  23.000
  214 2.980 2.590  3.370 1.000 1.00000 2.980 1.000     13.466  23.000
  215 2.980 2.590  3.370 1.000 1.00000 2.980 1.000     19.630  23.000
  216 3.020 2.626  3.414 1.000 1.00000 3.020 1.000     11.470  23.000
  217 3.010 2.617  3.403 1.000 1.00000 3.010 1.000     39.281  23.000
  218 2.960 2.572  3.348 1.000 1.00000 2.960 1.000      2.593  23.000
  219 2.960 2.572  3.348 1.000 1.00000 2.960 1.000     13.354  23.000
  220 3.050 2.653  3.447 1.000 1.00000 3.050 1.000     43.268  23.000
  221 3.040 2.644  3.436 1.000 1.00000 3.040 1.000     11.569  23.000
  222 2.990 2.599  3.381 1.000 1.00000 2.990 1.000      8.028  23.000
  223 3.040 2.644  3.436 1.000 1.00000 3.040 1.000     42.048  23.000
  224 2.980 2.590  3.370 1.000 1.00000 2.980 1.000      3.862  23.000
  225 3.020 2.626  3.414 1.000 1.00000 3.020 1.000      9.882  23.000
  226 3.030 2.635  3.425 1.000 1.00000 3.030 1.000     57.813  23.000
  227 3.000 2.608  3.392 1.000 1.00000 3.000 1.000     20.695  23.000
  228 2.990 2.599  3.381 1.000 1.00000 2.990 1.000      9.509  23.000
  229 3.040 2.644  3.436 1.000 1.00000 3.040 1.000     42.282  23.000
  230 2.950 2.563  3.337 1.000 1.00000 2.950 1.000      3.703  23.000
  231 2.990 2.599  3.381 1.000 1.00000 2.990 1.000     37.964  23.000
  232 3.010 2.617  3.403 1.000 1.00000 3.010 1.000     39.997  23.000
  233 2.970 2.581  3.359 1.000 1.00000 2.970 1.000     13.299  23.000
  234 3.040 2.644  3.436 1.000 1.00000 3.040 1.000     23.865  23.000
  235 3.020 2.626  3.414 1.000 1.00000 3.020 1.000     13.559  23.000
  236 2.970 2.581  3.359 1.000 1.00000 2.970 1.000      5.809  23.000
  237 2.990 2.599  3.381 1.000 1.00000 2.990 1.000     29.962  23.000
  238 2.960 2.572  3.348 1.000 1.00000 2.960 1.000     29.923  23.000
  239 2.990 2.599  3.381 1.000 1.00000 2.990 1.000     15.766  23.000
  240 2.960 2.572  3.348 1.000 1.00000 2.960 1.000      8.500  23.000
  241 2.970 2.581  3.359 1.000 1.00000 2.970 1.000      3.274  23.000
  242 2.980 2.590  3.370 1.000 1.00000 2.980 1.000      7.375  23.000
  243 3.020 2.626  3.414 1.000 1.00000 3.020 1.000     20.172  23.000
  244 2.970 2.581  3.359 1.000 1.00000 2.970 1.000      6.453  23.000
  245 2.980 2.590  3.370 1.000 1.00000 2.980 1.000      5.464  23.000
  246 3.010 2.617  3.403 1.000 1.00000 3.010 1.000     21.034  23.000
  247 2.970 2.581  3.359 1.000 1.00000 2.970 1.000      3.863  23.000
  248 3.050 2.653  3.447 1.000 1.00000 3.050 1.000     30.031  23.000
  249 3.030 2.635  3.425 1.000 1.00000 3.030 1.000     12.193  23.000
  250 2.960 2.572  3.348 1.000 1.00000 2.960 1.000     11.608  23.000
  251 3.000 2.608  3.392 1.000 1.00000 3.000 1.000     32.967  23.000
  252 2.960 2.572  3.348 1.000 1.00000 2.960 1.000     20.576  23.000
  253 2.960 2.572  3.348 1.000 1.00000 2.960 1.000     12.121  23.000
  254 2.960 2.572  3.348 1.000 1.00000 2.960 1.000     17.383  23.000
  255 3.020 2.626  3.414 1.000 1.00000 3.020 1.000     32.744  23.000
  256 2.970 2.581  3.359 1.000 1.00000 2.970 1.000     17.016  23.000
  257 2.950 2.563  3.337 1.000 1.00000 2.950 1.000     23.375  23.000
  258 3.000 2.608  3.392 1.000 1.00000 3.000 1.000     12.226  23.000
  259 2.990 2.599  3.381 1.000 1.00000 2.990 1.000      7.192  23.000
  260 2.980 2.590  3.370 1.000 1.00000 2.980 1.000     21.594  23.000
  261 2.980 2.590  3.370 1.000 1.00000 2.980 1.000     27.702  23.000
  262 2.960 2.572  3.348 1.000 1.00000 2.960 1.000     36.440  23.000
  263 2.970 2.581  3.359 1.000 1.00000 2.970 1.000     15.188  23.000
  264 2.970 2.581  3.359 1.000 1.00000 2.970 1.000     30.851  23.000
  265 3.000 2.608  3.392 1.000 1.00000 3.000 1.000     14.716  23.000
  266 2.970 2.581  3.359 1.000 1.00000 2.970 1.000      9.040  23.000
  267 2.970 2.581  3.359 1.000 1.00000 2.970 1.000     13.025  23.000
  268 2.990 2.599  3.381 1.000 1.00000 2.990 1.000     20.012  23.000
  269 3.000 2.608  3.392 1.000 1.00000 3.000 1.000     28.881  23.000
  270 3.000 2.608  3.392 1.000 1.00000 3.000 1.000     21.770  23.000
  271 2.960 2.572  3.348 1.000 1.00000 2.960 1.000     32.426  23.000
  272 3.030 2.635  3.425 1.000 1.00000 3.030 1.000     47.101  23.000
  273 2.990 2.599  3.381 1.000 1.00000 2.990 1.000     48.894  23.000
  274 3.000 2.608  3.392 1.000 1.00000 3.000 1.000     18.013  23.000
  275 2.960 2.572  3.348 1.000 1.00000 2.960 1.000     12.618  23.000
  276 2.960 2.572  3.348 1.000 1.00000 2.960 1.000      8.089  23.000
  277 2.970 2.581  3.359 1.000 1.00000 2.970 1.000      9.607  23.000
  278 3.010 2.617  3.403 1.000 1.00000 3.010 1.000     35.532  23.000
  279 2.990 2.599  3.381 1.000 1.00000 2.990 1.000     20.225  23.000
  280 2.990 2.599  3.381 1.000 1.00000 2.990 1.000     39.112  23.000
  281 2.950 2.563  3.337 1.000 1.00000 2.950 1.000      4.285  23.000
  282 2.970 2.581  3.359 1.000 1.00000 2.970 1.000     36.163  23.000
  283 3.000 2.608  3.392 1.000 1.00000 3.000 1.000     55.730  23.000
  284 3.000 2.608  3.392 1.000 1.00000 3.000 1.000      9.395  23.000
  285 3.020 2.626  3.414 1.000 1.00000 3.020 1.000     44.050  23.000
  286 3.020 2.626  3.414 1.000 1.00000 3.020 1.000     30.600  23.000
  287 2.960 2.572  3.348 1.000 1.00000 2.960 1.000     10.847  23.000
  288 2.960 2.572  3.348 1.000 1.00000 2.960 1.000     16.927  23.000
  289 3.000 2.608  3.392 1.000 1.00000 3.000 1.000      8.364  23.000
  290 2.980 2.590  3.370 1.000 1.00000 2.980 1.000      3.778  23.000
  291 2.990 2.599  3.381 1.000 1.00000 2.990 1.000     11.987  23.000
  292 3.020 2.626  3.414 1.000 1.00000 3.020 1.000     11.840  23.000
  293 2.980 2.590  3.370 1.000 1.00000 2.980 1.000      6.206  23.000
  294 2.970 2.581  3.359 1.000 1.00000 2.970 1.000     11.343  23.000
  295 2.980 2.590  3.370 1.000 1.00000 2.980 1.000     22.764  23.000
  296 2.990 2.599  3.381 1.000 1.00000 2.990 1.000     10.010  23.000
  297 2.980 2.590  3.370 1.000 1.00000 2.980 1.000      6.682  23.000
  298 2.970 2.581  3.359 1.000 1.00000 2.970 1.000     20.159  23.000
  299 2.960 2.572  3.348 1.000 1.00000 2.960 1.000     29.002  23.000
  300 3.010 2.617  3.403 1.000 1.00000 3.010 1.000     32.669  23.000
  301 3.010 2.617  3.403 1.000 1.00000 3.010 1.000     24.939  23.000
  302 2.970 2.581  3.359 1.000 1.00000 2.970 1.000      9.209  23.000
  303 2.990 2.599  3.381 1.000 1.00000 2.990 1.000     19.808  23.000
  304 3.000 2.608  3.392 1.000 1.00000 3.000 1.000     45.318  23.000
  305 2.980 2.590  3.370 1.000 1.00000 2.980 1.000     33.490  23.000
  306 3.030 2.635  3.425 1.000 1.00000 3.030 1.000     37.956  23.000
  307 2.960 2.572  3.348 1.000 1.00000 2.960 1.000      8.991  23.000
  308 2.950 2.563  3.337 1.000 1.00000 2.950 1.000      6.426  23.000
  309 2.970 2.581  3.359 1.000 1.00000 2.970 1.000     34.717  23.000
  310 3.040 2.644  3.436 1.000 1.00000 3.040 1.000     16.457  23.000
  311 3.070 2.671  3.469 1.000 1.00000 3.070 1.000     29.481  23.000
  312 2.970 2.581  3.359 1.000 1.00000 2.970 1.000      3.581  23.000
  313 3.020 2.626  3.414 1.000 1.00000 3.020 1.000     34.312  23.000
  314 2.960 2.572  3.348 1.000 1.00000 2.960 1.000     21.453  23.000
  315 3.020 2.626  3.414 1.000 1.00000 3.020 1.000     11.488  23.000
  316 2.960 2.572  3.348 1.000 1.00000 2.960 1.000     19.723  23.000
  317 2.970 2.581  3.359 1.000 1.00000 2.970 1.000     21.073  23.000
  318 3.010 2.617  3.403 1.000 1.00000 3.010 1.000     45.114  23.000
  319 3.000 2.608  3.392 1.000 1.00000 3.000 1.000     11.343  23.000
  320 3.020 2.626  3.414 1.000 1.00000 3.020 1.000     14.227  23.000
  321 2.970 2.581  3.359 1.000 1.00000 2.970 1.000     44.283  23.000
  322 2.960 2.572  3.348 1.000 1.00000 2.960 1.000     28.241  23.000
  323 3.000 2.608  3.392 1.000 1.00000 3.000 1.000     23.438  23.000
  324 3.000 2.608  3.392 1.000 1.00000 3.000 1.000     27.047  23.000
  325 3.000 2.608  3.392 1.000 1.00000 3.000 1.000      6.206  23.000
  326 3.030 2.635  3.425 1.000 1.00000 3.030 1.000     34.874  23.000
  327 2.980 2.590  3.370 1.000 1.00000 2.980 1.000     24.741  23.000
  328 2.960 2.572  3.348 1.000 1.00000 2.960 1.000      6.824  23.000
  329 2.980 2.590  3.370 1.000 1.00000 2.980 1.000      3.826  23.000
  330 2.990 2.599  3.381 1.000 1.00000 2.990 1.000      5.614  23.000
  331 2.940 2.554  3.326 1.000 1.00000 2.940 1.000     13.748  23.000
  332 2.950 2.563  3.337 1.000 1.00000 2.950 1.000     11.812  23.000
  333 2.980 2.590  3.370 1.000 1.00000 2.980 1.000     29.817  23.000
  334 3.000 2.608  3.392 1.000 1.00000 3.000 1.000     24.880  23.000
  335 2.990 2.599  3.381 1.000 1.00000 2.990 1.000     10.644  23.000
  336 2.950 2.563  3.337 1.000 1.00000 2.950 1.000      2.710  23.000
  337 3.000 2.608  3.392 1.000 1.00000 3.000 1.000     14.937  23.000
  338 2.960 2.572  3.348 1.000 1.00000 2.960 1.000     15.044  23.000
  339 2.970 2.581  3.359 1.000 1.00000 2.970 1.000      9.539  23.000
  340 3.040 2.644  3.436 1.000 1.00000 3.040 1.000     20.172  23.000
  341 2.960 2.572  3.348 1.000 1.00000 2.960 1.000     29.003  23.000
  342 2.950 2.563  3.337 1.000 1.00000 2.950 1.000      3.925  23.000
  343 2.980 2.590  3.370 1.000 1.00000 2.980 1.000     20.371  23.000
  344 2.970 2.581  3.359 1.000 1.00000 2.970 1.000     28.143  23.000
  345 3.020 2.626  3.414 1.000 1.00000 3.020 1.000     12.301  23.000
  346 2.980 2.590  3.370 1.000 1.00000 2.980 1.000      3.814  23.000
  347 2.960 2.572  3.348 1.000 1.00000 2.960 1.000     20.978  23.000
  348 2.960 2.572  3.348 1.000 1.00000 2.960 1.000     21.875  23.000
  349 2.960 2.572  3.348 1.000 1.00000 2.960 1.000     11.430  23.000
  350 2.960 2.572  3.348 1.000 1.00000 2.960 1.000      5.200  23.000
  351 2.940 2.554  3.326 1.000 1.00000 2.940 1.000      4.639  23.000
  352 2.960 2.572  3.348 1.000 1.00000 2.960 1.000      2.578  23.000
  353 2.960 2.572  3.348 1.000 1.00000 2.960 1.000      3.543  23.000
  354 2.960 2.572  3.348 1.000 1.00000 2.960 1.000     28.153  23.000
  355 3.020 2.626  3.414 1.000 1.00000 3.020 1.000     20.566  23.000
  356 2.980 2.590  3.370 1.000 1.00000 2.980 1.000     23.099  23.000
  357 3.020 2.626  3.414 1.000 1.00000 3.020 1.000     15.272  23.000
  358 2.950 2.563  3.337 1.000 1.00000 2.950 1.000     13.672  23.000
  359 3.000 2.608  3.392 1.000 1.00000 3.000 1.000      8.204  23.000
  360 3.000 2.608  3.392 1.000 1.00000 3.000 1.000     40.816  23.000
  361 3.040 2.644  3.436 1.000 1.00000 3.040 1.000     26.084  23.000
  362 3.030 2.635  3.425 1.000 1.00000 3.030 1.000     18.410  23.000
  363 2.970 2.581  3.359 1.000 1.00000 2.970 1.000     10.756  23.000
  364 2.980 2.590  3.370 1.000 1.00000 2.980 1.000      9.099  23.000
  365 2.980 2.590  3.370 1.000 1.00000 2.980 1.000     30.825  23.000
  366 2.970 2.581  3.359 1.000 1.00000 2.970 1.000     13.806  23.000
  367 2.960 2.572  3.348 1.000 1.00000 2.960 1.000     13.841  23.000
  368 2.960 2.572  3.348 1.000 1.00000 2.960 1.000     29.953  23.000
  369 2.970 2.581  3.359 1.000 1.00000 2.970 1.000      3.879  23.000
  370 2.970 2.581  3.359 1.000 1.00000 2.970 1.000     20.678  23.000
  371 2.980 2.590  3.370 1.000 1.00000 2.980 1.000      3.781  23.000
  372 2.960 2.572  3.348 1.000 1.00000 2.960 1.000     21.511  23.000
  373 2.980 2.590  3.370 1.000 1.00000 2.980 1.000     12.449  23.000
  374 2.950 2.563  3.337 1.000 1.00000 2.950 1.000     12.130  23.000
  375 2.970 2.581  3.359 1.000 1.00000 2.970 1.000     21.112  23.000
  376 2.960 2.572  3.348 1.000 1.00000 2.960 1.000     16.058  23.000
  377 2.990 2.599  3.381 1.000 1.00000 2.990 1.000     10.466  23.000
  378 2.960 2.572  3.348 1.000 1.00000 2.960 1.000     10.746  23.000
  379 2.970 2.581  3.359 1.000 1.00000 2.970 1.000     15.861  23.000
  380 2.950 2.563  3.337 1.000 1.00000 2.950 1.000      8.630  23.000
  381 3.010 2.617  3.403 1.000 1.00000 3.010 1.000     12.180  23.000
  382 2.970 2.581  3.359 1.000 1.00000 2.970 1.000     12.388  23.000
  383 3.030 2.635  3.425 1.000 1.00000 3.030 1.000     20.939  23.000
  384 2.980 2.590  3.370 1.000 1.00000 2.980 1.000      4.038  23.000
  385 3.010 2.617  3.403 1.000 1.00000 3.010 1.000     21.465  23.000
  386 2.960 2.572  3.348 1.000 1.00000 2.960 1.000     18.425  23.000
  387 2.960 2.572  3.348 1.000 1.00000 2.960 1.000     18.111  23.000
  388 2.950 2.563  3.337 1.000 1.00000 2.950 1.000     11.854  23.000
  389 2.990 2.599  3.381 1.000 1.00000 2.990 1.000      5.852  23.000
  390 2.990 2.599  3.381 1.000 1.00000 2.990 1.000     29.052  23.000
  391 3.000 2.608  3.392 1.000 1.00000 3.000 1.000     21.600  23.000
  392 3.030 2.635  3.425 1.000 1.00000 3.030 1.000     17.810  23.000
  393 3.000 2.608  3.392 1.000 1.00000 3.000 1.000     17.659  23.000
  394 2.950 2.563  3.337 1.000 1.00000 2.950 1.000      4.226  23.000
  395 2.950 2.563  3.337 1.000 1.00000 2.950 1.000      7.453  23.000
  396 2.990 2.599  3.381 1.000 1.00000 2.990 1.000     13.520  23.000
  397 3.000 2.608  3.392 1.000 1.00000 3.000 1.000     16.855  23.000
  398 3.000 2.608  3.392 1.000 1.00000 3.000 1.000     34.443  23.000
  399 3.000 2.608  3.392 1.000 1.00000 3.000 1.000     23.285  23.000
  400 2.980 2.590  3.370 1.000 1.00000 2.980 1.000     22.711  23.000
  401 2.960 2.572  3.348 1.000 1.00000 2.960 1.000     28.518  23.000
  402 3.000 2.608  3.392 1.000 1.00000 3.000 1.000     26.479  23.000
  403 2.990 2.599  3.381 1.000 1.00000 2.990 1.000     11.833  23.000
  404 2.980 2.590  3.370 1.000 1.00000 2.980 1.000      6.618  23.000
  405 3.000 2.608  3.392 1.000 1.00000 3.000 1.000     30.853  23.000
  406 2.970 2.581  3.359 1.000 1.00000 2.970 1.000     32.766  23.000
  407 3.000 2.608  3.392 1.000 1.00000 3.000 1.000     34.423  23.000
  408 3.050 2.653  3.447 1.000 1.00000 3.050 1.000     50.566  23.000
  409 3.000 2.608  3.392 1.000 1.00000 3.000 1.000     17.615  23.000
  410 2.960 2.572  3.348 1.000 1.00000 2.960 1.000     12.512  23.000
  411 2.990 2.599  3.381 1.000 1.00000 2.990 1.000     27.176  23.000
  412 2.970 2.581  3.359 1.000 1.00000 2.970 1.000     18.281  23.000
  413 3.000 2.608  3.392 1.000 1.00000 3.000 1.000      8.043  23.000
  414 2.990 2.599  3.381 1.000 1.00000 2.990 1.000     17.327  23.000
  415 2.960 2.572  3.348 1.000 1.00000 2.960 1.000     29.805  23.000
  416 3.010 2.617  3.403 1.000 1.00000 3.010 1.000     19.517  23.000
  417 2.950 2.563  3.337 1.000 1.00000 2.950 1.000      4.009  23.000
  418 2.990 2.599  3.381 1.000 1.00000 2.990 1.000     12.016  23.000
  419 2.950 2.563  3.337 1.000 1.00000 2.950 1.000     19.906  23.000
  420 2.950 2.563  3.337 1.000 1.00000 2.950 1.000     11.676  23.000
  421 3.020 2.626  3.414 1.000 1.00000 3.020 1.000     10.126  23.000
  422 3.040 2.644  3.436 1.000 1.00000 3.040 1.000     14.822  23.000
  423 2.980 2.590  3.370 1.000 1.00000 2.980 1.000      7.270  23.000
  424 2.960 2.572  3.348 1.000 1.00000 2.960 1.000     12.597  23.000
  425 2.990 2.599  3.381 1.000 1.00000 2.990 1.000      5.282  23.000
  426 3.010 2.617  3.403 1.000 1.00000 3.010 1.000     18.969  23.000
  427 3.030 2.635  3.425 1.000 1.00000 3.030 1.000      9.520  23.000
  428 2.980 2.590  3.370 1.000 1.00000 2.980 1.000     26.360  23.000
  429 2.960 2.572  3.348 1.000 1.00000 2.960 1.000      8.146  23.000
  430 2.970 2.581  3.359 1.000 1.00000 2.970 1.000     25.851  23.000
  431 2.970 2.581  3.359 1.000 1.00000 2.970 1.000      6.237  23.000
  432 2.970 2.581  3.359 1.000 1.00000 2.970 1.000      5.912  23.000
  433 2.970 2.581  3.359 1.000 1.00000 2.970 1.000     37.053  23.000
  434 3.010 2.617  3.403 1.000 1.00000 3.010 1.000     13.313  23.000
  435 3.020 2.626  3.414 1.000 1.00000 3.020 1.000     42.864  23.000
  436 2.950 2.563  3.337 1.000 1.00000 2.950 1.000     48.584  23.000
  437 2.940 2.554  3.326 1.000 1.00000 2.940 1.000      7.181  23.000
  438 3.040 2.644  3.436 1.000 1.00000 3.040 1.000     27.227  23.000
  439 2.960 2.572  3.348 1.000 1.00000 2.960 1.000      6.895  23.000
  440 2.980 2.590  3.370 1.000 1.00000 2.980 1.000     62.608  23.000
  441 2.950 2.563  3.337 1.000 1.00000 2.950 1.000      3.440  23.000
  442 2.980 2.590  3.370 1.000 1.00000 2.980 1.000      8.359  23.000
  443 2.960 2.572  3.348 1.000 1.00000 2.960 1.000     17.248  23.000
  444 3.000 2.608  3.392 1.000 1.00000 3.000 1.000     17.428  23.000
  445 2.990 2.599  3.381 1.000 1.00000 2.990 1.000     17.063  23.000
  446 3.010 2.617  3.403 1.000 1.00000 3.010 1.000     20.401  23.000
  447 2.960 2.572  3.348 1.000 1.00000 2.960 1.000     26.076  23.000
  448 2.960 2.572  3.348 1.000 1.00000 2.960 1.000     18.728  23.000
  449 3.000 2.608  3.392 1.000 1.00000 3.000 1.000     16.858  23.000
  450 3.000 2.608  3.392 1.000 1.00000 3.000 1.000     15.381  23.000
  451 3.000 2.608  3.392 1.000 1.00000 3.000 1.000     13.985  23.000
  452 2.970 2.581  3.359 1.000 1.00000 2.970 1.000     28.293  23.000
  453 2.990 2.599  3.381 1.000 1.00000 2.990 1.000      9.201  23.000
  454 2.950 2.563  3.337 1.000 1.00000 2.950 1.000      3.074  23.000
  455 2.980 2.590  3.370 1.000 1.00000 2.980 1.000     32.733  23.000
  456 2.990 2.599  3.381 1.000 1.00000 2.990 1.000     11.670  23.000
  457 3.050 2.653  3.447 1.000 1.00000 3.050 1.000     49.095  23.000
  458 2.980 2.590  3.370 1.000 1.00000 2.980 1.000     24.291  23.000
  459 2.950 2.563  3.337 1.000 1.00000 2.950 1.000     18.304  23.000
  460 3.060 2.662  3.458 1.000 1.00000 3.060 1.000     26.241  23.000
  461 2.970 2.581  3.359 1.000 1.00000 2.970 1.000     12.756  23.000
  462 2.990 2.599  3.381 1.000 1.00000 2.990 1.000     30.138  23.000
  463 2.960 2.572  3.348 1.000 1.00000 2.960 1.000      6.647  23.000
  464 3.050 2.653  3.447 1.000 1.00000 3.050 1.000     33.717  23.000
  465 2.970 2.581  3.359 1.000 1.00000 2.970 1.000      9.207  23.000
  466 2.950 2.563  3.337 1.000 1.00000 2.950 1.000      8.713  23.000
  467 2.960 2.572  3.348 1.000 1.00000 2.960 1.000     19.193  23.000
  468 2.990 2.599  3.381 1.000 1.00000 2.990 1.000     20.462  23.000
  469 2.970 2.581  3.359 1.000 1.00000 2.970 1.000     43.719  23.000
  470 3.010 2.617  3.403 1.000 1.00000 3.010 1.000      7.628  23.000
  471 2.990 2.599  3.381 1.000 1.00000 2.990 1.000     17.347  23.000
  472 3.000 2.608  3.392 1.000 1.00000 3.000 1.000     12.530  23.000
  473 2.990 2.599  3.381 1.000 1.00000 2.990 1.000     27.875  23.000
  474 3.000 2.608  3.392 1.000 1.00000 3.000 1.000     25.049  23.000
  475 3.010 2.617  3.403 1.000 1.00000 3.010 1.000     24.532  23.000
  476 3.020 2.626  3.414 1.000 1.00000 3.020 1.000     30.925  23.000
  477 2.960 2.572  3.348 1.000 1.00000 2.960 1.000     11.482  23.000
  478 2.960 2.572  3.348 1.000 1.00000 2.960 1.000     16.219  23.000
  479 3.010 2.617  3.403 1.000 1.00000 3.010 1.000      9.109  23.000
  480 2.960 2.572  3.348 1.000 1.00000 2.960 1.000      3.281  23.000
  481 3.030 2.635  3.425 1.000 1.00000 3.030 1.000     15.446  23.000
  482 2.960 2.572  3.348 1.000 1.00000 2.960 1.000     13.961  23.000
  483 3.060 2.662  3.458 1.000 1.00000 3.060 1.000     44.048  23.000
  484 3.010 2.617  3.403 1.000 1.00000 3.010 1.000     10.658  23.000
  485 3.000 2.608  3.392 1.000 1.00000 3.000 1.000     53.045  23.000
  486 2.970 2.581  3.359 1.000 1.00000 2.970 1.000      3.414  23.000
  487 3.030 2.635  3.425 1.000 1.00000 3.030 1.000     30.450  23.000
  488 2.990 2.599  3.381 1.000 1.00000 2.990 1.000     45.997  23.000
  489 2.990 2.599  3.381 1.000 1.00000 2.990 1.000     10.445  23.000
  490 3.020 2.626  3.414 1.000 1.00000 3.020 1.000     23.702  23.000
  491 2.980 2.590  3.370 1.000 1.00000 2.980 1.000      8.621  23.000
  492 2.950 2.563  3.337 1.000 1.00000 2.950 1.000      1.882  23.000
  493 3.010 2.617  3.403 1.000 1.00000 3.010 1.000     20.296  23.000
  494 3.020 2.626  3.414 1.000 1.00000 3.020 1.000     15.165  23.000
  495 2.960 2.572  3.348 1.000 1.00000 2.960 1.000      8.121  23.000
  496 3.000 2.608  3.392 1.000 1.00000 3.000 1.000     23.661  23.000
  497 2.960 2.572  3.348 1.000 1.00000 2.960 1.000     29.790  23.000
  498 2.960 2.572  3.348 1.000 1.00000 2.960 1.000     18.275  23.000
  499 3.000 2.608  3.392 1.000 1.00000 3.000 1.000      9.843  23.000
  500 3.010 2.617  3.403 1.000 1.00000 3.010 1.000     38.901  23.000
  501 2.990 2.599  3.381 1.000 1.00000 2.990 1.000     17.314  23.000
  502 3.020 2.626  3.414 1.000 1.00000 3.020 1.000      9.532  23.000
  503 2.960 2.572  3.348 1.000 1.00000 2.960 1.000     16.108  23.000
  504 2.950 2.563  3.337 1.000 1.00000 2.950 1.000      5.533  23.000
  505 2.990 2.599  3.381 1.000 1.00000 2.990 1.000     29.228  23.000
  506 2.990 2.599  3.381 1.000 1.00000 2.990 1.000     17.316  23.000
  507 2.980 2.590  3.370 1.000 1.00000 2.980 1.000      7.980  23.000
  508 2.990 2.599  3.381 1.000 1.00000 2.990 1.000      6.093  23.000
  509 3.000 2.608  3.392 1.000 1.00000 3.000 1.000     29.444  23.000
  510 3.030 2.635  3.425 1.000 1.00000 3.030 1.000     13.532  23.000
  511 3.000 2.608  3.392 1.000 1.00000 3.000 1.000     11.575  23.000
  512 3.010 2.617  3.403 1.000 1.00000 3.010 1.000     14.324  23.000
  513 3.020 2.626  3.414 1.000 1.00000 3.020 1.000     18.921  23.000
  514 2.950 2.563  3.337 1.000 1.00000 2.950 1.000     12.169  23.000
  515 2.980 2.590  3.370 1.000 1.00000 2.980 1.000      9.523  23.000
  516 3.030 2.635  3.425 1.000 1.00000 3.030 1.000     38.253  23.000
  517 2.980 2.590  3.370 1.000 1.00000 2.980 1.000     14.269  23.000
  518 2.960 2.572  3.348 1.000 1.00000 2.960 1.000     22.587  23.000
  519 2.990 2.599  3.381 1.000 1.00000 2.990 1.000     36.341  23.000
  520 2.980 2.590  3.370 1.000 1.00000 2.980 1.000      5.001  23.000
  521 2.950 2.563  3.337 1.000 1.00000 2.950 1.000     25.142  23.000
  522 3.000 2.608  3.392 1.000 1.00000 3.000 1.000     15.359  23.000
  523 3.000 2.608  3.392 1.000 1.00000 3.000 1.000     50.510  23.000
  524 3.000 2.608  3.392 1.000 1.00000 3.000 1.000     40.844  23.000
  525 2.960 2.572  3.348 1.000 1.00000 2.960 1.000     22.390  23.000
  526 3.020 2.626  3.414 1.000 1.00000 3.020 1.000      8.666  23.000
  527 2.960 2.572  3.348 1.000 1.00000 2.960 1.000     16.806  23.000
  528 2.990 2.599  3.381 1.000 1.00000 2.990 1.000      6.270  23.000
  529 3.010 2.617  3.403 1.000 1.00000 3.010 1.000     33.317  23.000
  530 3.020 2.626  3.414 1.000 1.00000 3.020 1.000     16.252  23.000
  531 3.030 2.635  3.425 1.000 1.00000 3.030 1.000     26.882  23.000
  532 2.970 2.581  3.359 1.000 1.00000 2.970 1.000     20.869  23.000
  533 2.960 2.572  3.348 1.000 1.00000 2.960 1.000     19.440  23.000
  534 3.030 2.635  3.425 1.000 1.00000 3.030 1.000     34.952  23.000
  535 2.960 2.572  3.348 1.000 1.00000 2.960 1.000      9.976  23.000
  536 2.970 2.581  3.359 1.000 1.00000 2.970 1.000      9.736  23.000
  537 3.010 2.617  3.403 1.000 1.00000 3.010 1.000      9.329  23.000
  538 3.020 2.626  3.414 1.000 1.00000 3.020 1.000     34.979  23.000
  539 2.990 2.599  3.381 1.000 1.00000 2.990 1.000      6.040  23.000
  540 3.040 2.644  3.436 1.000 1.00000 3.040 1.000     24.916  23.000
  541 2.980 2.590  3.370 1.000 1.00000 2.980 1.000     22.909  23.000
  542 3.020 2.626  3.414 1.000 1.00000 3.020 1.000     20.157  23.000
  543 2.970 2.581  3.359 1.000 1.00000 2.970 1.000     23.672  23.000
  544 2.960 2.572  3.348 1.000 1.00000 2.960 1.000     14.017  23.000
  545 2.950 2.563  3.337 1.000 1.00000 2.950 1.000     24.920  23.000
  546 3.040 2.644  3.436 1.000 1.00000 3.040 1.000     39.415  23.000
  547 3.060 2.662  3.458 1.000 1.00000 3.060 1.000     31.662  23.000
  548 3.040 2.644  3.436 1.000 1.00000 3.040 1.000     21.092  23.000
  549 2.950 2.563  3.337 1.000 1.00000 2.950 1.000     19.347  23.000
  550 3.030 2.635  3.425 1.000 1.00000 3.030 1.000     28.809  23.000
  551 2.940 2.554  3.326 1.000 1.00000 2.940 1.000      2.640  23.000
  552 2.970 2.581  3.359 1.000 1.00000 2.970 1.000     13.130  23.000
  553 3.000 2.608  3.392 1.000 1.00000 3.000 1.000     25.221  23.000
  554 3.040 2.644  3.436 1.000 1.00000 3.040 1.000     32.896  23.000
  555 3.020 2.626  3.414 1.000 1.00000 3.020 1.000     36.114  23.000
  556 2.970 2.581  3.359 1.000 1.00000 2.970 1.000     10.824  23.000
  557 3.010 2.617  3.403 1.000 1.00000 3.010 1.000     17.677  23.000
  558 2.970 2.581  3.359 1.000 1.00000 2.970 1.000     24.902  23.000
  559 3.020 2.626  3.414 1.000 1.00000 3.020 1.000     35.024  23.000
  560 2.970 2.581  3.359 1.000 1.00000 2.970 1.000     30.607  23.000
  561 3.050 2.653  3.447 1.000 1.00000 3.050 1.000     50.002  23.000
  562 2.970 2.581  3.359 1.000 1.00000 2.970 1.000     17.529  23.000
  563 2.990 2.599  3.381 1.000 1.00000 2.990 1.000     10.326  23.000
  564 2.970 2.581  3.359 1.000 1.00000 2.970 1.000      8.951  23.000
  565 2.990 2.599  3.381 1.000 1.00000 2.990 1.000     23.177  23.000
  566 2.970 2.581  3.359 1.000 1.00000 2.970 1.000      5.680  23.000
  567 2.970 2.581  3.359 1.000 1.00000 2.970 1.000     30.295  23.000
  568 2.960 2.572  3.348 1.000 1.00000 2.960 1.000     35.554  23.000
  569 3.000 2.608  3.392 1.000 1.00000 3.000 1.000     24.110  23.000
  570 3.010 2.617  3.403 1.000 1.00000 3.010 1.000     20.592  23.000
  571 3.000 2.608  3.392 1.000 1.00000 3.000 1.000     23.036  23.000
  572 2.960 2.572  3.348 1.000 1.00000 2.960 1.000     26.877  23.000
  573 2.990 2.599  3.381 1.000 1.00000 2.990 1.000     35.432  23.000
  574 2.990 2.599  3.381 1.000 1.00000 2.990 1.000     16.056  23.000
  575 3.000 2.608  3.392 1.000 1.00000 3.000 1.000     25.365  23.000
  576 3.020 2.626  3.414 1.000 1.00000 3.020 1.000     30.478  23.000
  577 2.960 2.572  3.348 1.000 1.00000 2.960 1.000     17.945  23.000
  578 2.970 2.581  3.359 1.000 1.00000 2.970 1.000      4.959  23.000
  579 3.000 2.608  3.392 1.000 1.00000 3.000 1.000     32.813  23.000
  580 2.980 2.590  3.370 1.000 1.00000 2.980 1.000     18.419  23.000
  581 2.980 2.590  3.370 1.000 1.00000 2.980 1.000     29.762  23.000
  582 3.000 2.608  3.392 1.000 1.00000 3.000 1.000     34.344  23.000
  583 3.000 2.608  3.392 1.000 1.00000 3.000 1.000     10.324  23.000
  584 2.950 2.563  3.337 1.000 1.00000 2.950 1.000      9.590  23.000
  585 2.960 2.572  3.348 1.000 1.00000 2.960 1.000      5.951  23.000
  586 2.980 2.590  3.370 1.000 1.00000 2.980 1.000     36.246  23.000
  587 2.970 2.581  3.359 1.000 1.00000 2.970 1.000     14.731  23.000
  588 2.960 2.572  3.348 1.000 1.00000 2.960 1.000     17.099  23.000
  589 2.950 2.563  3.337 1.000 1.00000 2.950 1.000      8.796  23.000
  590 2.950 2.563  3.337 1.000 1.00000 2.950 1.000     16.257  23.000
  591 2.960 2.572  3.348 1.000 1.00000 2.960 1.000      2.965  23.000
  592 2.960 2.572  3.348 1.000 1.00000 2.960 1.000     12.285  23.000
  593 2.970 2.581  3.359 1.000 1.00000 2.970 1.000     46.873  23.000
  594 3.030 2.635  3.425 1.000 1.00000 3.030 1.000     13.124  23.000
  595 2.980 2.590  3.370 1.000 1.00000 2.980 1.000      4.430  23.000
  596 3.010 2.617  3.403 1.000 1.00000 3.010 1.000      9.174  23.000
  597 2.950 2.563  3.337 1.000 1.00000 2.950 1.000      5.563  23.000
  598 2.990 2.599  3.381 1.000 1.00000 2.990 1.000     29.315  23.000
  599 2.990 2.599  3.381 1.000 1.00000 2.990 1.000     10.273  23.000
  600 3.070 2.671  3.469 1.000 1.00000 3.070 1.000     23.293  23.000
  601 2.980 2.590  3.370 1.000 1.00000 2.980 1.000     12.403  23.000
  602 2.950 2.563  3.337 1.000 1.00000 2.950 1.000      2.013  23.000
  603 2.990 2.599  3.381 1.000 1.00000 2.990 1.000     13.140  23.000
  604 2.970 2.581  3.359 1.000 1.00000 2.970 1.000      4.474  23.000
  605 2.980 2.590  3.370 1.000 1.00000 2.980 1.000     30.345  23.000
  606 3.000 2.608  3.392 1.000 1.00000 3.000 1.000     48.000  23.000
  607 3.010 2.617  3.403 1.000 1.00000 3.010 1.000     16.837  23.000
  608 3.000 2.608  3.392 1.000 1.00000 3.000 1.000     15.479  23.000
  609 3.000 2.608  3.392 1.000 1.00000 3.000 1.000     25.649  23.000
  610 3.050 2.653  3.447 1.000 1.00000 3.050 1.000     25.888  23.000
  611 2.970 2.581  3.359 1.000 1.00000 2.970 1.000     19.845  23.000
  612 3.020 2.626  3.414 1.000 1.00000 3.020 1.000     22.382  23.000
  613 2.970 2.581  3.359 1.000 1.00000 2.970 1.000      6.594  23.000
  614 3.010 2.617  3.403 1.000 1.00000 3.010 1.000     25.700  23.000
  615 2.980 2.590  3.370 1.000 1.00000 2.980 1.000      5.513  23.000
  616 3.080 2.680  3.480 1.000 1.00000 3.080 1.000     28.850  23.000
  617 2.970 2.581  3.359 1.000 1.00000 2.970 1.000     17.919  23.000
  618 2.960 2.572  3.348 1.000 1.00000 2.960 1.000      2.711  23.000
  619 2.960 2.572  3.348 1.000 1.00000 2.960 1.000     18.165  23.000
  620 2.960 2.572  3.348 1.000 1.00000 2.960 1.000      2.961  23.000
  621 2.950 2.563  3.337 1.000 1.00000 2.950 1.000      6.948  23.000
  622 2.950 2.563  3.337 1.000 1.00000 2.950 1.000     11.765  23.000
  623 2.970 2.581  3.359 1.000 1.00000 2.970 1.000     11.943  23.000
  624 3.040 2.644  3.436 1.000 1.00000 3.040 1.000     19.975  23.000
  625 3.000 2.608  3.392 1.000 1.00000 3.000 1.000      8.513  23.000
  626 3.010 2.617  3.403 1.000 1.00000 3.010 1.000     17.398  23.000
  627 2.960 2.572  3.348 1.000 1.00000 2.960 1.000     16.436  23.000
  628 2.960 2.572  3.348 1.000 1.00000 2.960 1.000      9.254  23.000
  629 2.970 2.581  3.359 1.000 1.00000 2.970 1.000      4.407  23.000
  630 3.000 2.608  3.392 1.000 1.00000 3.000 1.000     16.995  23.000
  631 2.960 2.572  3.348 1.000 1.00000 2.960 1.000      7.736  23.000
  632 3.030 2.635  3.425 1.000 1.00000 3.030 1.000     25.779  23.000
  633 3.020 2.626  3.414 1.000 1.00000 3.020 1.000     60.185  23.000
  634 2.950 2.563  3.337 1.000 1.00000 2.950 1.000      4.576  23.000
  635 3.010 2.617  3.403 1.000 1.00000 3.010 1.000     42.393  23.000
  636 2.960 2.572  3.348 1.000 1.00000 2.960 1.000     11.581  23.000
  637 3.040 2.644  3.436 1.000 1.00000 3.040 1.000     17.045  23.000
  638 2.980 2.590  3.370 1.000 1.00000 2.980 1.000      6.880  23.000
  639 2.960 2.572  3.348 1.000 1.00000 2.960 1.000     29.886  23.000
  640 2.990 2.599  3.381 1.000 1.00000 2.990 1.000      8.540  23.000
  641 2.950 2.563  3.337 1.000 1.00000 2.950 1.000      2.771  23.000
  642 2.960 2.572  3.348 1.000 1.00000 2.960 1.000      3.910  23.000
  643 2.980 2.590  3.370 1.000 1.00000 2.980 1.000     10.989  23.000
  644 2.950 2.563  3.337 1.000 1.00000 2.950 1.000      2.754  23.000
  645 3.030 2.635  3.425 1.000 1.00000 3.030 1.000     31.730  23.000
  646 3.040 2.644  3.436 1.000 1.00000 3.040 1.000     18.799  23.000
  647 2.960 2.572  3.348 1.000 1.00000 2.960 1.000     11.529  23.000
  648 3.040 2.644  3.436 1.000 1.00000 3.040 1.000     37.932  23.000
  649 2.960 2.572  3.348 1.000 1.00000 2.960 1.000     23.596  23.000
  650 2.970 2.581  3.359 1.000 1.00000 2.970 1.000     15.658  23.000
  651 2.980 2.590  3.370 1.000 1.00000 2.980 1.000     31.997  23.000
  652 2.950 2.563  3.337 1.000 1.00000 2.950 1.000     42.540  23.000
  653 2.980 2.590  3.370 1.000 1.00000 2.980 1.000     21.563  23.000
  654 3.000 2.608  3.392 1.000 1.00000 3.000 1.000     27.057  23.000
  655 2.950 2.563  3.337 1.000 1.00000 2.950 1.000      5.778  23.000
  656 2.990 2.599  3.381 1.000 1.00000 2.990 1.000     32.761  23.000
  657 3.050 2.653  3.447 1.000 1.00000 3.050 1.000     36.915  23.000
  658 3.020 2.626  3.414 1.000 1.00000 3.020 1.000     29.753  23.000
  659 2.980 2.590  3.370 1.000 1.00000 2.980 1.000     13.027  23.000
  660 2.990 2.599  3.381 1.000 1.00000 2.990 1.000      7.117  23.000
  661 2.990 2.599  3.381 1.000 1.00000 2.990 1.000     10.494  23.000
  662 3.020 2.626  3.414 1.000 1.00000 3.020 1.000      9.564  23.000
  663 2.980 2.590  3.370 1.000 1.00000 2.980 1.000     23.426  23.000
  664 2.960 2.572  3.348 1.000 1.00000 2.960 1.000     20.106  23.000
  665 2.970 2.581  3.359 1.000 1.00000 2.970 1.000     14.852  23.000
  666 2.970 2.581  3.359 1.000 1.00000 2.970 1.000      5.294  23.000
  667 3.010 2.617  3.403 1.000 1.00000 3.010 1.000     42.695  23.000
  668 2.960 2.572  3.348 1.000 1.00000 2.960 1.000      8.346  23.000
  669 2.970 2.581  3.359 1.000 1.00000 2.970 1.000      8.271  23.000
  670 2.950 2.563  3.337 1.000 1.00000 2.950 1.000      8.092  23.000
  671 2.960 2.572  3.348 1.000 1.00000 2.960 1.000      5.030  23.000
  672 2.960 2.572  3.348 1.000 1.00000 2.960 1.000     20.129  23.000
  673 2.950 2.563  3.337 1.000 1.00000 2.950 1.000     14.782  23.000
  674 3.000 2.608  3.392 1.000 1.00000 3.000 1.000     24.613  23.000
  675 2.950 2.563  3.337 1.000 1.00000 2.950 1.000      8.478  23.000
  676 3.020 2.626  3.414 1.000 1.00000 3.020 1.000     14.921  23.000
  677 3.040 2.644  3.436 1.000 1.00000 3.040 1.000     20.564  23.000
  678 3.010 2.617  3.403 1.000 1.00000 3.010 1.000      9.256  23.000
  679 3.000 2.608  3.392 1.000 1.00000 3.000 1.000     25.130  23.000
  680 3.050 2.653  3.447 1.000 1.00000 3.050 1.000     29.659  23.000
  681 3.010 2.617  3.403 1.000 1.00000 3.010 1.000     47.809  23.000
  682 3.000 2.608  3.392 1.000 1.00000 3.000 1.000      7.643  23.000
  683 2.980 2.590  3.370 1.000 1.00000 2.980 1.000     53.062  23.000
  684 2.960 2.572  3.348 1.000 1.00000 2.960 1.000     11.269  23.000
  685 2.990 2.599  3.381 1.000 1.00000 2.990 1.000      8.750  23.000
  686 2.970 2.581  3.359 1.000 1.00000 2.970 1.000      9.603  23.000
  687 2.960 2.572  3.348 1.000 1.00000 2.960 1.000     10.114  23.000
  688 3.020 2.626  3.414 1.000 1.00000 3.020 1.000     11.779  23.000
  689 2.950 2.563  3.337 1.000 1.00000 2.950 1.000      1.905  23.000
  690 2.950 2.563  3.337 1.000 1.00000 2.950 1.000      6.414  23.000
  691 2.980 2.590  3.370 1.000 1.00000 2.980 1.000     12.473  23.000
  692 2.960 2.572  3.348 1.000 1.00000 2.960 1.000     10.483  23.000
  693 2.950 2.563  3.337 1.000 1.00000 2.950 1.000     20.437  23.000
  694 2.960 2.572  3.348 1.000 1.00000 2.960 1.000     14.308  23.000
  695 3.000 2.608  3.392 1.000 1.00000 3.000 1.000     17.569  23.000
  696 2.960 2.572  3.348 1.000 1.00000 2.960 1.000      8.705  23.000
  697 2.960 2.572  3.348 1.000 1.00000 2.960 1.000      9.929  23.000
  698 2.950 2.563  3.337 1.000 1.00000 2.950 1.000      8.402  23.000
  699 2.980 2.590  3.370 1.000 1.00000 2.980 1.000     17.510  23.000
  700 2.960 2.572  3.348 1.000 1.00000 2.960 1.000     13.816  23.000
  701 3.050 2.653  3.447 1.000 1.00000 3.050 1.000     17.142  23.000
  702 2.990 2.599  3.381 1.000 1.00000 2.990 1.000     24.448  23.000
  703 2.990 2.599  3.381 1.000 1.00000 2.990 1.000     11.949  23.000
  704 2.960 2.572  3.348 1.000 1.00000 2.960 1.000      3.745  23.000
  705 2.950 2.563  3.337 1.000 1.00000 2.950 1.000     22.875  23.000
  706 2.970 2.581  3.359 1.000 1.00000 2.970 1.000     13.346  23.000
  707 3.020 2.626  3.414 1.000 1.00000 3.020 1.000     14.560  23.000
  708 3.020 2.626  3.414 1.000 1.00000 3.020 1.000     39.753  23.000
  709 2.980 2.590  3.370 1.000 1.00000 2.980 1.000     15.310  23.000
  710 2.950 2.563  3.337 1.000 1.00000 2.950 1.000     10.295  23.000
  711 2.980 2.590  3.370 1.000 1.00000 2.980 1.000     12.758  23.000
  712 3.020 2.626  3.414 1.000 1.00000 3.020 1.000     41.466  23.000
  713 2.960 2.572  3.348 1.000 1.00000 2.960 1.000     26.019  23.000
  714 3.020 2.626  3.414 1.000 1.00000 3.020 1.000     25.608  23.000
  715 2.960 2.572  3.348 1.000 1.00000 2.960 1.000      5.236  23.000
  716 2.990 2.599  3.381 1.000 1.00000 2.990 1.000     25.833  23.000
  717 3.000 2.608  3.392 1.000 1.00000 3.000 1.000     32.208  23.000
  718 2.980 2.590  3.370 1.000 1.00000 2.980 1.000      4.587  23.000
  719 3.010 2.617  3.403 1.000 1.00000 3.010 1.000     10.185  23.000
  720 3.000 2.608  3.392 1.000 1.00000 3.000 1.000     23.675  23.000
  721 3.000 2.608  3.392 1.000 1.00000 3.000 1.000     24.347  23.000
  722 2.970 2.581  3.359 1.000 1.00000 2.970 1.000      4.428  23.000
  723 2.960 2.572  3.348 1.000 1.00000 2.960 1.000     14.440  23.000
  724 2.990 2.599  3.381 1.000 1.00000 2.990 1.000      7.315  23.000
  725 3.020 2.626  3.414 1.000 1.00000 3.020 1.000     45.793  23.000
  726 2.960 2.572  3.348 1.000 1.00000 2.960 1.000      9.525  23.000
  727 2.990 2.599  3.381 1.000 1.00000 2.990 1.000     16.098  23.000
  728 3.020 2.626  3.414 1.000 1.00000 3.020 1.000     33.796  23.000
  729 3.000 2.608  3.392 1.000 1.00000 3.000 1.000     21.926  23.000
  730 2.980 2.590  3.370 1.000 1.00000 2.980 1.000     22.782  23.000
  731 2.980 2.590  3.370 1.000 1.00000 2.980 1.000     39.061  23.000
  732 2.980 2.590  3.370 1.000 1.00000 2.980 1.000      6.515  23.000
  733 2.960 2.572  3.348 1.000 1.00000 2.960 1.000     32.653  23.000
  734 2.990 2.599  3.381 1.000 1.00000 2.990 1.000     26.637  23.000
  735 3.020 2.626  3.414 1.000 1.00000 3.020 1.000     18.275  23.000
  736 2.960 2.572  3.348 1.000 1.00000 2.960 1.000      7.131  23.000
  737 3.020 2.626  3.414 1.000 1.00000 3.020 1.000     58.279  23.000
  738 2.980 2.590  3.370 1.000 1.00000 2.980 1.000     22.918  23.000
  739 2.960 2.572  3.348 1.000 1.00000 2.960 1.000      6.331  23.000
  740 2.970 2.581  3.359 1.000 1.00000 2.970 1.000      6.161  23.000
  741 3.010 2.617  3.403 1.000 1.00000 3.010 1.000     40.300  23.000
  742 2.970 2.581  3.359 1.000 1.00000 2.970 1.000     17.652  23.000
  743 2.970 2.581  3.359 1.000 1.00000 2.970 1.000     21.475  23.000
  744 2.980 2.590  3.370 1.000 1.00000 2.980 1.000      9.678  23.000
  745 3.020 2.626  3.414 1.000 1.00000 3.020 1.000     24.188  23.000
  746 3.040 2.644  3.436 1.000 1.00000 3.040 1.000     21.742  23.000
  747 2.980 2.590  3.370 1.000 1.00000 2.980 1.000     17.972  23.000
  748 2.950 2.563  3.337 1.000 1.00000 2.950 1.000      8.578  23.000
  749 2.960 2.572  3.348 1.000 1.00000 2.960 1.000     14.760  23.000
  750 2.980 2.590  3.370 1.000 1.00000 2.980 1.000     18.154  23.000
  751 3.000 2.608  3.392 1.000 1.00000 3.000 1.000     40.738  23.000
  752 3.040 2.644  3.436 1.000 1.00000 3.040 1.000     29.264  23.000
  753 2.960 2.572  3.348 1.000 1.00000 2.960 1.000     17.290  23.000
  754 2.960 2.572  3.348 1.000 1.00000 2.960 1.000     19.901  23.000
  755 3.000 2.608  3.392 1.000 1.00000 3.000 1.000     13.376  23.000
  756 2.980 2.590  3.370 1.000 1.00000 2.980 1.000     12.173  23.000
  757 3.020 2.626  3.414 1.000 1.00000 3.020 1.000     24.604  23.000
  758 2.970 2.581  3.359 1.000 1.00000 2.970 1.000     17.492  23.000
  759 2.980 2.590  3.370 1.000 1.00000 2.980 1.000     20.154  23.000
  760 2.980 2.590  3.370 1.000 1.00000 2.980 1.000     19.597  23.000
  761 2.970 2.581  3.359 1.000 1.00000 2.970 1.000      9.783  23.000
  762 3.030 2.635  3.425 1.000 1.00000 3.030 1.000     10.827  23.000
  763 2.950 2.563  3.337 1.000 1.00000 2.950 1.000      2.223  23.000
  764 3.000 2.608  3.392 1.000 1.00000 3.000 1.000     39.510  23.000
  765 2.990 2.599  3.381 1.000 1.00000 2.990 1.000      9.109  23.000
  766 3.010 2.617  3.403 1.000 1.00000 3.010 1.000     23.857  23.000
  767 3.010 2.617  3.403 1.000 1.00000 3.010 1.000     18.363  23.000
  768 2.980 2.590  3.370 1.000 1.00000 2.980 1.000     28.739  23.000
  769 2.990 2.599  3.381 1.000 1.00000 2.990 1.000     20.330  23.000
  770 2.960 2.572  3.348 1.000 1.00000 2.960 1.000      8.771  23.000
  771 3.000 2.608  3.392 1.000 1.00000 3.000 1.000     10.771  23.000
  772 3.020 2.626  3.414 1.000 1.00000 3.020 1.000     21.016  23.000
  773 2.960 2.572  3.348 1.000 1.00000 2.960 1.000     15.251  23.000
  774 3.040 2.644  3.436 1.000 1.00000 3.040 1.000     31.740  23.000
  775 3.020 2.626  3.414 1.000 1.00000 3.020 1.000     22.389  23.000
  776 2.990 2.599  3.381 1.000 1.00000 2.990 1.000     10.584  23.000
  777 2.960 2.572  3.348 1.000 1.00000 2.960 1.000     14.095  23.000
  778 2.960 2.572  3.348 1.000 1.00000 2.960 1.000     21.611  23.000
  779 2.970 2.581  3.359 1.000 1.00000 2.970 1.000     15.335  23.000
  780 3.020 2.626  3.414 1.000 1.00000 3.020 1.000     33.955  23.000
  781 2.990 2.599  3.381 1.000 1.00000 2.990 1.000     11.374  23.000
  782 2.970 2.581  3.359 1.000 1.00000 2.970 1.000      8.443  23.000
  783 2.980 2.590  3.370 1.000 1.00000 2.980 1.000      4.358  23.000
  784 3.030 2.635  3.425 1.000 1.00000 3.030 1.000     37.626  23.000
  785 2.990 2.599  3.381 1.000 1.00000 2.990 1.000     13.044  23.000
  786 3.010 2.617  3.403 1.000 1.00000 3.010 1.000      8.977  23.000
  787 3.000 2.608  3.392 1.000 1.00000 3.000 1.000     27.277  23.000
  788 3.000 2.608  3.392 1.000 1.00000 3.000 1.000     28.438  23.000
  789 3.020 2.626  3.414 1.000 1.00000 3.020 1.000     26.078  23.000
  790 3.020 2.626  3.414 1.000 1.00000 3.020 1.000     32.309  23.000
  791 2.970 2.581  3.359 1.000 1.00000 2.970 1.000      4.440  23.000
  792 2.990 2.599  3.381 1.000 1.00000 2.990 1.000     36.453  23.000
  793 3.040 2.644  3.436 1.000 1.00000 3.040 1.000     62.769  23.000
  794 3.000 2.608  3.392 1.000 1.00000 3.000 1.000     16.858  23.000
  795 3.020 2.626  3.414 1.000 1.00000 3.020 1.000     27.819  23.000
  796 2.980 2.590  3.370 1.000 1.00000 2.980 1.000      3.810  23.000
  797 2.960 2.572  3.348 1.000 1.00000 2.960 1.000     36.124  23.000
  798 2.970 2.581  3.359 1.000 1.00000 2.970 1.000      8.871  23.000
  799 2.980 2.590  3.370 1.000 1.00000 2.980 1.000     39.955  23.000
  800 3.010 2.617  3.403 1.000 1.00000 3.010 1.000     25.080  23.000
  801 2.960 2.572  3.348 1.000 1.00000 2.960 1.000     47.291  23.000
  802 3.010 2.617  3.403 1.000 1.00000 3.010 1.000     30.322  23.000
  803 2.950 2.563  3.337 1.000 1.00000 2.950 1.000     26.263  23.000
  804 3.000 2.608  3.392 1.000 1.00000 3.000 1.000     22.358  23.000
  805 3.000 2.608  3.392 1.000 1.00000 3.000 1.000      7.792  23.000
  806 3.010 2.617  3.403 1.000 1.00000 3.010 1.000     26.387  23.000
  807 3.020 2.626  3.414 1.000 1.00000 3.020 1.000     28.466  23.000
  808 3.020 2.626  3.414 1.000 1.00000 3.020 1.000     10.743  23.000
  809 3.020 2.626  3.414 1.000 1.00000 3.020 1.000     13.518  23.000
  810 3.010 2.617  3.403 1.000 1.00000 3.010 1.000      9.079  23.000
  811 3.060 2.662  3.458 1.000 1.00000 3.060 1.000     34.652  23.000
  812 2.960 2.572  3.348 1.000 1.00000 2.960 1.000     14.903  23.000
  813 2.960 2.572  3.348 1.000 1.00000 2.960 1.000      4.777  23.000
  814 2.950 2.563  3.337 1.000 1.00000 2.950 1.000     17.594  23.000
  815 2.970 2.581  3.359 1.000 1.00000 2.970 1.000      3.643  23.000
  816 2.960 2.572  3.348 1.000 1.00000 2.960 1.000      3.166  23.000
  817 3.010 2.617  3.403 1.000 1.00000 3.010 1.000     46.745  23.000
  818 3.030 2.635  3.425 1.000 1.00000 3.030 1.000     24.289  23.000
  819 2.940 2.554  3.326 1.000 1.00000 2.940 1.000      1.138  23.000
  820 2.970 2.581  3.359 1.000 1.00000 2.970 1.000     21.064  23.000
  821 3.010 2.617  3.403 1.000 1.00000 3.010 1.000     42.309  23.000
  822 3.010 2.617  3.403 1.000 1.00000 3.010 1.000     10.468  23.000
  823 2.960 2.572  3.348 1.000 1.00000 2.960 1.000     21.430  23.000
  824 3.020 2.626  3.414 1.000 1.00000 3.020 1.000     31.143  23.000
  825 3.040 2.644  3.436 1.000 1.00000 3.040 1.000     35.913  23.000
  826 2.990 2.599  3.381 1.000 1.00000 2.990 1.000     25.476  23.000
  827 2.950 2.563  3.337 1.000 1.00000 2.950 1.000     11.731  23.000
  828 3.010 2.617  3.403 1.000 1.00000 3.010 1.000     18.143  23.000
  829 3.010 2.617  3.403 1.000 1.00000 3.010 1.000     26.269  23.000
  830 2.980 2.590  3.370 1.000 1.00000 2.980 1.000     22.230  23.000
  831 2.960 2.572  3.348 1.000 1.00000 2.960 1.000     21.165  23.000
  832 2.970 2.581  3.359 1.000 1.00000 2.970 1.000     34.107  23.000
  833 3.000 2.608  3.392 1.000 1.00000 3.000 1.000      5.986  23.000
  834 2.970 2.581  3.359 1.000 1.00000 2.970 1.000     35.218  23.000
  835 2.970 2.581  3.359 1.000 1.00000 2.970 1.000      8.306  23.000
  836 2.990 2.599  3.381 1.000 1.00000 2.990 1.000     19.564  23.000
  837 3.000 2.608  3.392 1.000 1.00000 3.000 1.000     12.333  23.000
  838 2.950 2.563  3.337 1.000 1.00000 2.950 1.000      5.355  23.000
  839 3.030 2.635  3.425 1.000 1.00000 3.030 1.000     16.946  23.000
  840 2.960 2.572  3.348 1.000 1.00000 2.960 1.000     26.296  23.000
  841 2.950 2.563  3.337 1.000 1.00000 2.950 1.000      4.466  23.000
  842 3.020 2.626  3.414 1.000 1.00000 3.020 1.000     17.165  23.000
  843 3.010 2.617  3.403 1.000 1.00000 3.010 1.000     20.681  23.000
  844 2.980 2.590  3.370 1.000 1.00000 2.980 1.000     19.198  23.000
  845 2.960 2.572  3.348 1.000 1.00000 2.960 1.000      6.390  23.000
  846 3.020 2.626  3.414 1.000 1.00000 3.020 1.000     13.110  23.000
  847 2.990 2.599  3.381 1.000 1.00000 2.990 1.000     21.006  23.000
  848 2.960 2.572  3.348 1.000 1.00000 2.960 1.000     16.565  23.000
  849 3.000 2.608  3.392 1.000 1.00000 3.000 1.000      7.100  23.000
  850 3.020 2.626  3.414 1.000 1.00000 3.020 1.000     27.264  23.000
  851 2.970 2.581  3.359 1.000 1.00000 2.970 1.000      4.668  23.000
  852 2.960 2.572  3.348 1.000 1.00000 2.960 1.000     26.975  23.000
  853 2.970 2.581  3.359 1.000 1.00000 2.970 1.000     24.901  23.000
  854 3.010 2.617  3.403 1.000 1.00000 3.010 1.000     23.733  23.000
  855 2.950 2.563  3.337 1.000 1.00000 2.950 1.000     10.214  23.000
  856 3.000 2.608  3.392 1.000 1.00000 3.000 1.000      6.296  23.000
  857 3.000 2.608  3.392 1.000 1.00000 3.000 1.000     14.282  23.000
  858 2.950 2.563  3.337 1.000 1.00000 2.950 1.000     27.105  23.000
  859 2.960 2.572  3.348 1.000 1.00000 2.960 1.000     13.370  23.000
  860 3.020 2.626  3.414 1.000 1.00000 3.020 1.000      8.773  23.000
  861 3.030 2.635  3.425 1.000 1.00000 3.030 1.000     18.316  23.000
  862 3.010 2.617  3.403 1.000 1.00000 3.010 1.000     27.539  23.000
  863 3.000 2.608  3.392 1.000 1.00000 3.000 1.000     17.503  23.000
  864 3.040 2.644  3.436 1.000 1.00000 3.040 1.000     47.143  23.000
  865 3.010 2.617  3.403 1.000 1.00000 3.010 1.000     23.335  23.000
  866 2.960 2.572  3.348 1.000 1.00000 2.960 1.000     11.953  23.000
  867 2.950 2.563  3.337 1.000 1.00000 2.950 1.000     23.415  23.000
  868 2.960 2.572  3.348 1.000 1.00000 2.960 1.000     17.647  23.000
  869 3.030 2.635  3.425 1.000 1.00000 3.030 1.000     46.362  23.000
  870 3.030 2.635  3.425 1.000 1.00000 3.030 1.000     16.488  23.000
  871 2.960 2.572  3.348 1.000 1.00000 2.960 1.000     19.846  23.000
  872 3.050 2.653  3.447 1.000 1.00000 3.050 1.000     59.643  23.000
  873 2.970 2.581  3.359 1.000 1.00000 2.970 1.000      5.431  23.000
  874 2.960 2.572  3.348 1.000 1.00000 2.960 1.000     20.794  23.000
  875 2.960 2.572  3.348 1.000 1.00000 2.960 1.000      5.877  23.000
  876 2.960 2.572  3.348 1.000 1.00000 2.960 1.000      7.669  23.000
  877 3.040 2.644  3.436 1.000 1.00000 3.040 1.000     30.663  23.000
  878 2.980 2.590  3.370 1.000 1.00000 2.980 1.000     23.896  23.000
  879 2.970 2.581  3.359 1.000 1.00000 2.970 1.000     30.412  23.000
  880 2.970 2.581  3.359 1.000 1.00000 2.970 1.000     36.671  23.000
  881 3.030 2.635  3.425 1.000 1.00000 3.030 1.000     14.012  23.000
  882 3.010 2.617  3.403 1.000 1.00000 3.010 1.000     14.581  23.000
  883 2.990 2.599  3.381 1.000 1.00000 2.990 1.000     19.303  23.000
  884 2.970 2.581  3.359 1.000 1.00000 2.970 1.000      3.573  23.000
  885 2.980 2.590  3.370 1.000 1.00000 2.980 1.000     28.721  23.000
  886 2.980 2.590  3.370 1.000 1.00000 2.980 1.000      4.398  23.000
  887 2.990 2.599  3.381 1.000 1.00000 2.990 1.000     16.195  23.000
  888 3.000 2.608  3.392 1.000 1.00000 3.000 1.000     10.447  23.000
  889 2.970 2.581  3.359 1.000 1.00000 2.970 1.000     33.105  23.000
  890 3.010 2.617  3.403 1.000 1.00000 3.010 1.000     26.560  23.000
  891 3.030 2.635  3.425 1.000 1.00000 3.030 1.000     26.519  23.000
  892 2.950 2.563  3.337 1.000 1.00000 2.950 1.000      7.655  23.000
  893 3.030 2.635  3.425 1.000 1.00000 3.030 1.000     26.823  23.000
  894 3.030 2.635  3.425 1.000 1.00000 3.030 1.000     34.942  23.000
  895 2.970 2.581  3.359 1.000 1.00000 2.970 1.000     25.171  23.000
  896 2.950 2.563  3.337 1.000 1.00000 2.950 1.000      8.645  23.000
  897 3.030 2.635  3.425 1.000 1.00000 3.030 1.000     15.271  23.000
  898 2.990 2.599  3.381 1.000 1.00000 2.990 1.000     12.757  23.000
  899 2.960 2.572  3.348 1.000 1.00000 2.960 1.000     11.621  23.000
  900 3.000 2.608  3.392 1.000 1.00000 3.000 1.000     19.708  23.000
  901 2.970 2.581  3.359 1.000 1.00000 2.970 1.000     14.409  23.000
  902 2.980 2.590  3.370 1.000 1.00000 2.980 1.000      5.055  23.000
  903 3.010 2.617  3.403 1.000 1.00000 3.010 1.000     17.359  23.000
  904 2.960 2.572  3.348 1.000 1.00000 2.960 1.000     11.782  23.000
  905 2.960 2.572  3.348 1.000 1.00000 2.960 1.000     23.337  23.000
  906 2.960 2.572  3.348 1.000 1.00000 2.960 1.000     13.035  23.000
  907 3.020 2.626  3.414 1.000 1.00000 3.020 1.000     33.044  23.000
  908 2.980 2.590  3.370 1.000 1.00000 2.980 1.000     17.128  23.000
  909 2.990 2.599  3.381 1.000 1.00000 2.990 1.000     32.735  23.000
  910 2.960 2.572  3.348 1.000 1.00000 2.960 1.000      4.509  23.000
  911 2.950 2.563  3.337 1.000 1.00000 2.950 1.000     23.408  23.000
  912 2.970 2.581  3.359 1.000 1.00000 2.970 1.000      7.831  23.000
  913 3.040 2.644  3.436 1.000 1.00000 3.040 1.000     11.979  23.000
  914 2.960 2.572  3.348 1.000 1.00000 2.960 1.000      9.808  23.000
  915 2.970 2.581  3.359 1.000 1.00000 2.970 1.000     31.001  23.000
  916 2.940 2.554  3.326 1.000 1.00000 2.940 1.000      3.526  23.000
  917 3.040 2.644  3.436 1.000 1.00000 3.040 1.000     20.190  23.000
  918 2.970 2.581  3.359 1.000 1.00000 2.970 1.000     26.277  23.000
  919 2.990 2.599  3.381 1.000 1.00000 2.990 1.000     15.055  23.000
  920 2.960 2.572  3.348 1.000 1.00000 2.960 1.000     12.106  23.000
  921 2.960 2.572  3.348 1.000 1.00000 2.960 1.000      7.901  23.000
  922 3.020 2.626  3.414 1.000 1.00000 3.020 1.000     13.240  23.000
  923 2.950 2.563  3.337 1.000 1.00000 2.950 1.000      8.014  23.000
  924 3.030 2.635  3.425 1.000 1.00000 3.030 1.000     29.673  23.000
  925 2.960 2.572  3.348 1.000 1.00000 2.960 1.000     19.347  23.000
  926 2.960 2.572  3.348 1.000 1.00000 2.960 1.000      5.776  23.000
  927 2.980 2.590  3.370 1.000 1.00000 2.980 1.000     28.259  23.000
  928 3.010 2.617  3.403 1.000 1.00000 3.010 1.000     30.493  23.000
  929 2.960 2.572  3.348 1.000 1.00000 2.960 1.000     23.099  23.000
  930 3.030 2.635  3.425 1.000 1.00000 3.030 1.000     18.934  23.000
  931 2.980 2.590  3.370 1.000 1.00000 2.980 1.000     11.841  23.000
  932 3.010 2.617  3.403 1.000 1.00000 3.010 1.000     38.013  23.000
  933 3.020 2.626  3.414 1.000 1.00000 3.020 1.000     13.627  23.000
  934 2.960 2.572  3.348 1.000 1.00000 2.960 1.000     22.213  23.000
  935 2.970 2.581  3.359 1.000 1.00000 2.970 1.000     14.374  23.000
  936 3.020 2.626  3.414 1.000 1.00000 3.020 1.000     48.922  23.000
  937 3.010 2.617  3.403 1.000 1.00000 3.010 1.000     10.911  23.000
  938 2.950 2.563  3.337 1.000 1.00000 2.950 1.000     27.390  23.000
  939 3.040 2.644  3.436 1.000 1.00000 3.040 1.000     21.871  23.000
  940 2.980 2.590  3.370 1.000 1.00000 2.980 1.000     29.387  23.000
  941 2.950 2.563  3.337 1.000 1.00000 2.950 1.000      3.140  23.000
  942 3.040 2.644  3.436 1.000 1.00000 3.040 1.000     25.732  23.000
  943 2.990 2.599  3.381 1.000 1.00000 2.990 1.000     22.239  23.000
  944 2.950 2.563  3.337 1.000 1.00000 2.950 1.000     11.834  23.000
  945 3.010 2.617  3.403 1.000 1.00000 3.010 1.000     15.877  23.000
  946 2.950 2.563  3.337 1.000 1.00000 2.950 1.000      3.957  23.000
  947 2.940 2.554  3.326 1.000 1.00000 2.940 1.000      8.680  23.000
  948 2.960 2.572  3.348 1.000 1.00000 2.960 1.000     12.938  23.000
  949 2.990 2.599  3.381 1.000 1.00000 2.990 1.000     19.543  23.000
  950 3.010 2.617  3.403 1.000 1.00000 3.010 1.000     38.059  23.000
  951 2.990 2.599  3.381 1.000 1.00000 2.990 1.000     26.030  23.000
  952 2.950 2.563  3.337 1.000 1.00000 2.950 1.000     12.933  23.000
  953 2.980 2.590  3.370 1.000 1.00000 2.980 1.000     27.560  23.000
  954 2.970 2.581  3.359 1.000 1.00000 2.970 1.000     11.545  23.000
  955 3.030 2.635  3.425 1.000 1.00000 3.030 1.000     15.154  23.000
  956 2.990 2.599  3.381 1.000 1.00000 2.990 1.000     16.826  23.000
  957 3.060 2.662  3.458 1.000 1.00000 3.060 1.000     43.491  23.000
  958 3.050 2.653  3.447 1.000 1.00000 3.050 1.000     51.684  23.000
  959 3.010 2.617  3.403 1.000 1.00000 3.010 1.000     15.076  23.000
  960 3.010 2.617  3.403 1.000 1.00000 3.010 1.000     10.376  23.000
  961 3.010 2.617  3.403 1.000 1.00000 3.010 1.000     42.458  23.000
  962 3.040 2.644  3.436 1.000 1.00000 3.040 1.000     23.112  23.000
  963 3.030 2.635  3.425 1.000 1.00000 3.030 1.000     70.774  23.000
  964 2.960 2.572  3.348 1.000 1.00000 2.960 1.000     13.991  23.000
  965 2.990 2.599  3.381 1.000 1.00000 2.990 1.000     13.000  23.000
  966 2.990 2.599  3.381 1.000 1.00000 2.990 1.000      5.869  23.000
  967 2.960 2.572  3.348 1.000 1.00000 2.960 1.000     20.829  23.000
  968 2.990 2.599  3.381 1.000 1.00000 2.990 1.000     42.921  23.000
  969 3.010 2.617  3.403 1.000 1.00000 3.010 1.000     18.006  23.000
  970 3.000 2.608  3.392 1.000 1.00000 3.000 1.000     18.148  23.000
  971 2.980 2.590  3.370 1.000 1.00000 2.980 1.000     18.959  23.000
  972 3.030 2.635  3.425 1.000 1.00000 3.030 1.000     31.849  23.000
  973 2.970 2.581  3.359 1.000 1.00000 2.970 1.000      5.222  23.000
  974 3.000 2.608  3.392 1.000 1.00000 3.000 1.000     44.697  23.000
  975 3.010 2.617  3.403 1.000 1.00000 3.010 1.000     10.648  23.000
  976 2.970 2.581  3.359 1.000 1.00000 2.970 1.000     13.181  23.000
  977 2.970 2.581  3.359 1.000 1.00000 2.970 1.000     22.878  23.000
  978 3.080 2.680  3.480 1.000 1.00000 3.080 1.000     47.031  23.000
  979 2.990 2.599  3.381 1.000 1.00000 2.990 1.000     15.848  23.000
  980 3.000 2.608  3.392 1.000 1.00000 3.000 1.000     19.434  23.000
  981 3.040 2.644  3.436 1.000 1.00000 3.040 1.000     39.650  23.000
  982 2.970 2.581  3.359 1.000 1.00000 2.970 1.000     10.178  23.000
  983 3.000 2.608  3.392 1.000 1.00000 3.000 1.000     31.057  23.000
  984 2.950 2.563  3.337 1.000 1.00000 2.950 1.000     12.083  23.000
  985 2.950 2.563  3.337 1.000 1.00000 2.950 1.000      8.137  23.000
  986 2.960 2.572  3.348 1.000 1.00000 2.960 1.000     20.105  23.000
  987 2.960 2.572  3.348 1.000 1.00000 2.960 1.000      4.520  23.000
  988 3.020 2.626  3.414 1.000 1.00000 3.020 1.000     43.069  23.000
  989 2.970 2.581  3.359 1.000 1.00000 2.970 1.000     30.446  23.000
  990 3.040 2.644  3.436 1.000 1.00000 3.040 1.000     62.430  23.000
  991 3.040 2.644  3.436 1.000 1.00000 3.040 1.000     22.460  23.000
  992 3.030 2.635  3.425 1.000 1.00000 3.030 1.000     31.217  23.000
  993 3.000 2.608  3.392 1.000 1.00000 3.000 1.000     20.422  23.000
  994 3.010 2.617  3.403 1.000 1.00000 3.010 1.000     17.228  23.000
  995 2.960 2.572  3.348 1.000 1.00000 2.960 1.000      7.798  23.000
  996 2.960 2.572  3.348 1.000 1.00000 2.960 1.000      7.322  23.000
  997 2.950 2.563  3.337 1.000 1.00000 2.950 1.000     16.657  23.000
  998 3.010 2.617  3.403 1.000 1.00000 3.010 1.000      9.114  23.000
  999 3.010 2.617  3.403 1.000 1.00000 3.010 1.000     24.702  23.000
 1000 2.950 2.563  3.337 1.000 1.00000 2.950 1.000     34.649  23.000
 1001 3.030 2.635  3.425 1.000 1.00000 3.030 1.000     31.840  23.000
 1002 3.020 2.626  3.414 1.000 1.00000 3.020 1.000     26.322  23.000
 1003 2.980 2.590  3.370 1.000 1.00000 2.980 1.000     15.152  23.000
 1004 2.990 2.599  3.381 1.000 1.00000 2.990 1.000     13.441  23.000
 1005 3.000 2.608  3.392 1.000 1.00000 3.000 1.000      7.810  23.000
 1006 2.960 2.572  3.348 1.000 1.00000 2.960 1.000     36.705  23.000
 1007 3.020 2.626  3.414 1.000 1.00000 3.020 1.000     34.365  23.000
 1008 2.970 2.581  3.359 1.000 1.00000 2.970 1.000      6.603  23.000
 1009 2.960 2.572  3.348 1.000 1.00000 2.960 1.000      3.855  23.000
 1010 2.980 2.590  3.370 1.000 1.00000 2.980 1.000      7.820  23.000
 1011 2.960 2.572  3.348 1.000 1.00000 2.960 1.000     17.895  23.000
 1012 3.020 2.626  3.414 1.000 1.00000 3.020 1.000     13.517  23.000
 1013 2.970 2.581  3.359 1.000 1.00000 2.970 1.000     10.902  23.000
 1014 2.960 2.572  3.348 1.000 1.00000 2.960 1.000     31.218  23.000
 1015 3.010 2.617  3.403 1.000 1.00000 3.010 1.000     50.929  23.000
 1016 3.060 2.662  3.458 1.000 1.00000 3.060 1.000     68.900  23.000
 1017 2.960 2.572  3.348 1.000 1.00000 2.960 1.000      9.290  23.000
 1018 2.950 2.563  3.337 1.000 1.00000 2.950 1.000      9.973  23.000
 1019 3.010 2.617  3.403 1.000 1.00000 3.010 1.000     22.651  23.000
 1020 3.000 2.608  3.392 1.000 1.00000 3.000 1.000     29.675  23.000
 1021 3.020 2.626  3.414 1.000 1.00000 3.020 1.000     22.806  23.000
 1022 3.040 2.644  3.436 1.000 1.00000 3.040 1.000     55.358  23.000
 1023 2.960 2.572  3.348 1.000 1.00000 2.960 1.000     10.275  23.000
 1024 2.940 2.554  3.326 1.000 1.00000 2.940 1.000      1.481  23.000
 1025 2.970 2.581  3.359 1.000 1.00000 2.970 1.000     47.439  23.000
 1026 3.010 2.617  3.403 1.000 1.00000 3.010 1.000     37.756  23.000
 1027 2.980 2.590  3.370 1.000 1.00000 2.980 1.000     14.324  23.000
 1028 3.020 2.626  3.414 1.000 1.00000 3.020 1.000     59.658  23.000
 1029 2.960 2.572  3.348 1.000 1.00000 2.960 1.000      8.267  23.000
 1030 3.000 2.608  3.392 1.000 1.00000 3.000 1.000     23.713  23.000
 1031 2.960 2.572  3.348 1.000 1.00000 2.960 1.000     21.110  23.000
 1032 2.990 2.599  3.381 1.000 1.00000 2.990 1.000     12.953  23.000
 1033 2.960 2.572  3.348 1.000 1.00000 2.960 1.000     17.433  23.000
 1034 3.040 2.644  3.436 1.000 1.00000 3.040 1.000     49.126  23.000
 1035 2.980 2.590  3.370 1.000 1.00000 2.980 1.000     16.217  23.000
 1036 2.950 2.563  3.337 1.000 1.00000 2.950 1.000      2.051  23.000
 1037 3.020 2.626  3.414 1.000 1.00000 3.020 1.000     18.599  23.000
 1038 2.960 2.572  3.348 1.000 1.00000 2.960 1.000     11.431  23.000
 1039 3.000 2.608  3.392 1.000 1.00000 3.000 1.000     20.433  23.000
 1040 3.000 2.608  3.392 1.000 1.00000 3.000 1.000      8.409  23.000
 1041 3.000 2.608  3.392 1.000 1.00000 3.000 1.000     22.403  23.000
 1042 2.990 2.599  3.381 1.000 1.00000 2.990 1.000      8.126  23.000
 1043 2.990 2.599  3.381 1.000 1.00000 2.990 1.000      6.969  23.000
 1044 3.020 2.626  3.414 1.000 1.00000 3.020 1.000     37.243  23.000
 1045 2.970 2.581  3.359 1.000 1.00000 2.970 1.000     13.505  23.000
 1046 2.960 2.572  3.348 1.000 1.00000 2.960 1.000     32.118  23.000
 1047 2.960 2.572  3.348 1.000 1.00000 2.960 1.000      2.522  23.000
 1048 3.020 2.626  3.414 1.000 1.00000 3.020 1.000      9.079  23.000
 1049 3.010 2.617  3.403 1.000 1.00000 3.010 1.000     12.597  23.000
 1050 3.040 2.644  3.436 1.000 1.00000 3.040 1.000     13.936  23.000
 1051 3.030 2.635  3.425 1.000 1.00000 3.030 1.000     37.837  23.000
 1052 3.020 2.626  3.414 1.000 1.00000 3.020 1.000     22.639  23.000
 1053 3.040 2.644  3.436 1.000 1.00000 3.040 1.000     18.423  23.000
 1054 2.970 2.581  3.359 1.000 1.00000 2.970 1.000     10.218  23.000
 1055 2.990 2.599  3.381 1.000 1.00000 2.990 1.000     11.798  23.000
 1056 2.980 2.590  3.370 1.000 1.00000 2.980 1.000     16.838  23.000
 1057 2.990 2.599  3.381 1.000 1.00000 2.990 1.000     30.233  23.000
 1058 2.980 2.590  3.370 1.000 1.00000 2.980 1.000     20.376  23.000
 1059 3.030 2.635  3.425 1.000 1.00000 3.030 1.000     45.789  23.000
 1060 3.010 2.617  3.403 1.000 1.00000 3.010 1.000     22.441  23.000
 1061 3.000 2.608  3.392 1.000 1.00000 3.000 1.000     12.130  23.000
 1062 2.990 2.599  3.381 1.000 1.00000 2.990 1.000     23.885  23.000
 1063 2.990 2.599  3.381 1.000 1.00000 2.990 1.000     11.434  23.000
 1064 2.960 2.572  3.348 1.000 1.00000 2.960 1.000      6.594  23.000
 1065 3.000 2.608  3.392 1.000 1.00000 3.000 1.000     15.512  23.000
 1066 2.970 2.581  3.359 1.000 1.00000 2.970 1.000     25.217  23.000
 1067 2.960 2.572  3.348 1.000 1.00000 2.960 1.000     25.226  23.000
 1068 2.960 2.572  3.348 1.000 1.00000 2.960 1.000     25.419  23.000
 1069 2.950 2.563  3.337 1.000 1.00000 2.950 1.000     17.999  23.000
 1070 2.970 2.581  3.359 1.000 1.00000 2.970 1.000     66.227  23.000
 1071 2.960 2.572  3.348 1.000 1.00000 2.960 1.000     40.311  23.000
 1072 2.980 2.590  3.370 1.000 1.00000 2.980 1.000      3.796  23.000
 1073 2.960 2.572  3.348 1.000 1.00000 2.960 1.000     14.528  23.000
 1074 3.010 2.617  3.403 1.000 1.00000 3.010 1.000     12.899  23.000
 1075 2.960 2.572  3.348 1.000 1.00000 2.960 1.000      4.240  23.000
 1076 2.970 2.581  3.359 1.000 1.00000 2.970 1.000     31.597  23.000
 1077 3.030 2.635  3.425 1.000 1.00000 3.030 1.000     22.497  23.000
 1078 2.950 2.563  3.337 1.000 1.00000 2.950 1.000     12.785  23.000
 1079 3.030 2.635  3.425 1.000 1.00000 3.030 1.000     38.999  23.000
 1080 2.950 2.563  3.337 1.000 1.00000 2.950 1.000     30.884  23.000
 1081 2.990 2.599  3.381 1.000 1.00000 2.990 1.000      4.738  23.000
 1082 3.010 2.617  3.403 1.000 1.00000 3.010 1.000     13.679  23.000
 1083 2.980 2.590  3.370 1.000 1.00000 2.980 1.000     16.460  23.000
 1084 2.980 2.590  3.370 1.000 1.00000 2.980 1.000     28.976  23.000
 1085 3.000 2.608  3.392 1.000 1.00000 3.000 1.000     15.847  23.000
 1086 2.990 2.599  3.381 1.000 1.00000 2.990 1.000      9.338  23.000
 1087 2.990 2.599  3.381 1.000 1.00000 2.990 1.000      6.937  23.000
 1088 2.990 2.599  3.381 1.000 1.00000 2.990 1.000     30.602  23.000
 1089 3.010 2.617  3.403 1.000 1.00000 3.010 1.000     21.409  23.000
 1090 2.980 2.590  3.370 1.000 1.00000 2.980 1.000     26.403  23.000
 1091 2.980 2.590  3.370 1.000 1.00000 2.980 1.000      5.626  23.000
 1092 3.050 2.653  3.447 1.000 1.00000 3.050 1.000     13.912  23.000
 1093 2.960 2.572  3.348 1.000 1.00000 2.960 1.000     13.045  23.000
 1094 2.990 2.599  3.381 1.000 1.00000 2.990 1.000     15.853  23.000
 1095 2.990 2.599  3.381 1.000 1.00000 2.990 1.000      5.012  23.000
 1096 2.990 2.599  3.381 1.000 1.00000 2.990 1.000      6.292  23.000
 1097 2.950 2.563  3.337 1.000 1.00000 2.950 1.000      7.833  23.000
 1098 3.000 2.608  3.392 1.000 1.00000 3.000 1.000     27.015  23.000
 1099 2.990 2.599  3.381 1.000 1.00000 2.990 1.000     15.449  23.000
 1100 3.000 2.608  3.392 1.000 1.00000 3.000 1.000     44.115  23.000
 1101 2.980 2.590  3.370 1.000 1.00000 2.980 1.000      5.223  23.000
 1102 2.950 2.563  3.337 1.000 1.00000 2.950 1.000     15.334  23.000
 1103 3.020 2.626  3.414 1.000 1.00000 3.020 1.000     78.329  23.000
 1104 3.020 2.626  3.414 1.000 1.00000 3.020 1.000     23.164  23.000
 1105 3.050 2.653  3.447 1.000 1.00000 3.050 1.000     29.521  23.000
 1106 2.960 2.572  3.348 1.000 1.00000 2.960 1.000      6.763  23.000
 1107 2.980 2.590  3.370 1.000 1.00000 2.980 1.000     18.846  23.000
 1108 3.020 2.626  3.414 1.000 1.00000 3.020 1.000     26.685  23.000
 1109 2.980 2.590  3.370 1.000 1.00000 2.980 1.000      8.011  23.000
 1110 3.000 2.608  3.392 1.000 1.00000 3.000 1.000     35.031  23.000
 1111 2.990 2.599  3.381 1.000 1.00000 2.990 1.000     12.615  23.000
 1112 2.950 2.563  3.337 1.000 1.00000 2.950 1.000     16.166  23.000
 1113 3.020 2.626  3.414 1.000 1.00000 3.020 1.000     17.019  23.000
 1114 3.030 2.635  3.425 1.000 1.00000 3.030 1.000     26.716  23.000
 1115 2.970 2.581  3.359 1.000 1.00000 2.970 1.000      6.931  23.000
 1116 2.960 2.572  3.348 1.000 1.00000 2.960 1.000     12.739  23.000
 1117 2.970 2.581  3.359 1.000 1.00000 2.970 1.000      9.279  23.000
 1118 2.980 2.590  3.370 1.000 1.00000 2.980 1.000      4.406  23.000
 1119 3.010 2.617  3.403 1.000 1.00000 3.010 1.000     12.915  23.000
 1120 3.030 2.635  3.425 1.000 1.00000 3.030 1.000     23.021  23.000
 1121 2.950 2.563  3.337 1.000 1.00000 2.950 1.000      4.179  23.000
 1122 3.080 2.680  3.480 1.000 1.00000 3.080 1.000     68.167  23.000
 1123 2.980 2.590  3.370 1.000 1.00000 2.980 1.000     21.000  23.000
 1124 2.960 2.572  3.348 1.000 1.00000 2.960 1.000     26.106  23.000
 1125 2.950 2.563  3.337 1.000 1.00000 2.950 1.000     11.865  23.000
 1126 2.960 2.572  3.348 1.000 1.00000 2.960 1.000     14.593  23.000
 1127 2.990 2.599  3.381 1.000 1.00000 2.990 1.000     14.301  23.000
 1128 2.950 2.563  3.337 1.000 1.00000 2.950 1.000      8.796  23.000
 1129 2.980 2.590  3.370 1.000 1.00000 2.980 1.000     29.152  23.000
 1130 2.960 2.572  3.348 1.000 1.00000 2.960 1.000      4.604  23.000
 1131 2.970 2.581  3.359 1.000 1.00000 2.970 1.000     32.358  23.000
 1132 2.960 2.572  3.348 1.000 1.00000 2.960 1.000     10.930  23.000
 1133 2.990 2.599  3.381 1.000 1.00000 2.990 1.000     30.572  23.000
 1134 2.970 2.581  3.359 1.000 1.00000 2.970 1.000     21.223  23.000
 1135 2.960 2.572  3.348 1.000 1.00000 2.960 1.000      2.633  23.000
 1136 2.950 2.563  3.337 1.000 1.00000 2.950 1.000      2.042  23.000
 1137 2.960 2.572  3.348 1.000 1.00000 2.960 1.000     13.415  23.000
 1138 2.970 2.581  3.359 1.000 1.00000 2.970 1.000     15.639  23.000
 1139 2.980 2.590  3.370 1.000 1.00000 2.980 1.000      9.919  23.000
 1140 3.010 2.617  3.403 1.000 1.00000 3.010 1.000      7.844  23.000
 1141 2.990 2.599  3.381 1.000 1.00000 2.990 1.000     47.219  23.000
 1142 2.990 2.599  3.381 1.000 1.00000 2.990 1.000     23.560  23.000
 1143 2.990 2.599  3.381 1.000 1.00000 2.990 1.000     40.271  23.000
 1144 2.990 2.599  3.381 1.000 1.00000 2.990 1.000      9.289  23.000
 1145 2.990 2.599  3.381 1.000 1.00000 2.990 1.000     10.100  23.000
 1146 2.980 2.590  3.370 1.000 1.00000 2.980 1.000     35.459  23.000
 1147 2.950 2.563  3.337 1.000 1.00000 2.950 1.000      5.065  23.000
 1148 2.950 2.563  3.337 1.000 1.00000 2.950 1.000      6.596  23.000
 1149 2.980 2.590  3.370 1.000 1.00000 2.980 1.000     48.055  23.000
 1150 2.960 2.572  3.348 1.000 1.00000 2.960 1.000     12.290  23.000
 1151 2.990 2.599  3.381 1.000 1.00000 2.990 1.000      9.041  23.000
 1152 3.030 2.635  3.425 1.000 1.00000 3.030 1.000     53.463  23.000
 1153 2.960 2.572  3.348 1.000 1.00000 2.960 1.000      7.971  23.000
 1154 2.960 2.572  3.348 1.000 1.00000 2.960 1.000      6.793  23.000
 1155 2.970 2.581  3.359 1.000 1.00000 2.970 1.000     36.996  23.000
 1156 2.950 2.563  3.337 1.000 1.00000 2.950 1.000      5.074  23.000
 1157 2.990 2.599  3.381 1.000 1.00000 2.990 1.000     21.469  23.000
 1158 3.000 2.608  3.392 1.000 1.00000 3.000 1.000     18.437  23.000
 1159 3.030 2.635  3.425 1.000 1.00000 3.030 1.000     11.293  23.000
 1160 2.970 2.581  3.359 1.000 1.00000 2.970 1.000      9.656  23.000
 1161 3.040 2.644  3.436 1.000 1.00000 3.040 1.000     30.342  23.000
 1162 2.950 2.563  3.337 1.000 1.00000 2.950 1.000     16.235  23.000
 1163 3.040 2.644  3.436 1.000 1.00000 3.040 1.000     38.870  23.000
 1164 2.980 2.590  3.370 1.000 1.00000 2.980 1.000     26.508  23.000
 1165 2.970 2.581  3.359 1.000 1.00000 2.970 1.000     31.829  23.000
 1166 2.980 2.590  3.370 1.000 1.00000 2.980 1.000      5.624  23.000
 1167 2.970 2.581  3.359 1.000 1.00000 2.970 1.000      5.318  23.000
 1168 2.980 2.590  3.370 1.000 1.00000 2.980 1.000     34.353  23.000
 1169 3.030 2.635  3.425 1.000 1.00000 3.030 1.000     24.013  23.000
 1170 2.990 2.599  3.381 1.000 1.00000 2.990 1.000     12.698  23.000
 1171 3.020 2.626  3.414 1.000 1.00000 3.020 1.000     13.699  23.000
 1172 3.000 2.608  3.392 1.000 1.00000 3.000 1.000     13.279  23.000
 1173 2.980 2.590  3.370 1.000 1.00000 2.980 1.000     21.760  23.000
 1174 2.960 2.572  3.348 1.000 1.00000 2.960 1.000     14.687  23.000
 1175 3.020 2.626  3.414 1.000 1.00000 3.020 1.000      8.769  23.000
 1176 2.950 2.563  3.337 1.000 1.00000 2.950 1.000      4.804  23.000
 1177 2.970 2.581  3.359 1.000 1.00000 2.970 1.000     28.594  23.000
 1178 2.970 2.581  3.359 1.000 1.00000 2.970 1.000      5.292  23.000
 1179 3.010 2.617  3.403 1.000 1.00000 3.010 1.000     10.626  23.000
 1180 2.950 2.563  3.337 1.000 1.00000 2.950 1.000     52.839  23.000
 1181 3.020 2.626  3.414 1.000 1.00000 3.020 1.000     11.343  23.000
 1182 3.010 2.617  3.403 1.000 1.00000 3.010 1.000     36.241  23.000
 1183 2.950 2.563  3.337 1.000 1.00000 2.950 1.000      9.935  23.000
 1184 2.960 2.572  3.348 1.000 1.00000 2.960 1.000     18.525  23.000
 1185 2.960 2.572  3.348 1.000 1.00000 2.960 1.000      8.366  23.000
 1186 3.020 2.626  3.414 1.000 1.00000 3.020 1.000     24.384  23.000
 1187 3.040 2.644  3.436 1.000 1.00000 3.040 1.000     29.732  23.000
 1188 2.960 2.572  3.348 1.000 1.00000 2.960 1.000      8.280  23.000
 1189 2.980 2.590  3.370 1.000 1.00000 2.980 1.000     22.982  23.000
 1190 2.980 2.590  3.370 1.000 1.00000 2.980 1.000     15.702  23.000
 1191 2.990 2.599  3.381 1.000 1.00000 2.990 1.000     55.516  23.000
 1192 3.030 2.635  3.425 1.000 1.00000 3.030 1.000     32.746  23.000
 1193 3.000 2.608  3.392 1.000 1.00000 3.000 1.000     56.916  23.000
 1194 3.010 2.617  3.403 1.000 1.00000 3.010 1.000     25.591  23.000
 1195 3.000 2.608  3.392 1.000 1.00000 3.000 1.000     17.550  23.000
 1196 2.980 2.590  3.370 1.000 1.00000 2.980 1.000     24.258  23.000
 1197 3.000 2.608  3.392 1.000 1.00000 3.000 1.000     30.330  23.000
 1198 2.960 2.572  3.348 1.000 1.00000 2.960 1.000     20.476  23.000
 1199 2.980 2.590  3.370 1.000 1.00000 2.980 1.000     27.854  23.000
 1200 2.950 2.563  3.337 1.000 1.00000 2.950 1.000     12.794  23.000
 1201 3.000 2.608  3.392 1.000 1.00000 3.000 1.000      7.260  23.000
 1202 2.990 2.599  3.381 1.000 1.00000 2.990 1.000     16.610  23.000
 1203 2.980 2.590  3.370 1.000 1.00000 2.980 1.000      4.445  23.000
 1204 2.950 2.563  3.337 1.000 1.00000 2.950 1.000      3.046  23.000
 1205 2.990 2.599  3.381 1.000 1.00000 2.990 1.000     33.699  23.000
 1206 2.980 2.590  3.370 1.000 1.00000 2.980 1.000     20.699  23.000
 1207 3.020 2.626  3.414 1.000 1.00000 3.020 1.000      8.849  23.000
 1208 2.970 2.581  3.359 1.000 1.00000 2.970 1.000     14.124  23.000
 1209 2.990 2.599  3.381 1.000 1.00000 2.990 1.000     23.905  23.000
 1210 3.020 2.626  3.414 1.000 1.00000 3.020 1.000     32.704  23.000
 1211 3.010 2.617  3.403 1.000 1.00000 3.010 1.000     17.145  23.000
 1212 3.010 2.617  3.403 1.000 1.00000 3.010 1.000     14.690  23.000
 1213 2.970 2.581  3.359 1.000 1.00000 2.970 1.000     26.368  23.000
 1214 3.020 2.626  3.414 1.000 1.00000 3.020 1.000     14.389  23.000
 1215 2.960 2.572  3.348 1.000 1.00000 2.960 1.000     19.111  23.000
 1216 2.960 2.572  3.348 1.000 1.00000 2.960 1.000     22.973  23.000
 1217 2.970 2.581  3.359 1.000 1.00000 2.970 1.000     13.313  23.000
 1218 2.970 2.581  3.359 1.000 1.00000 2.970 1.000     54.813  23.000
 1219 2.990 2.599  3.381 1.000 1.00000 2.990 1.000     18.688  23.000
 1220 3.010 2.617  3.403 1.000 1.00000 3.010 1.000     62.431  23.000
 1221 2.980 2.590  3.370 1.000 1.00000 2.980 1.000     16.928  23.000
 1222 3.010 2.617  3.403 1.000 1.00000 3.010 1.000      8.019  23.000
 1223 3.030 2.635  3.425 1.000 1.00000 3.030 1.000     28.511  23.000
 1224 2.980 2.590  3.370 1.000 1.00000 2.980 1.000      4.317  23.000
 1225 3.010 2.617  3.403 1.000 1.00000 3.010 1.000     63.301  23.000
 1226 2.960 2.572  3.348 1.000 1.00000 2.960 1.000     59.448  23.000
 1227 2.980 2.590  3.370 1.000 1.00000 2.980 1.000     21.472  23.000
 1228 2.980 2.590  3.370 1.000 1.00000 2.980 1.000     13.336  23.000
 1229 2.950 2.563  3.337 1.000 1.00000 2.950 1.000     22.936  23.000
 1230 2.960 2.572  3.348 1.000 1.00000 2.960 1.000      8.239  23.000
 1231 2.960 2.572  3.348 1.000 1.00000 2.960 1.000      4.834  23.000
 1232 3.020 2.626  3.414 1.000 1.00000 3.020 1.000     22.922  23.000
 1233 2.950 2.563  3.337 1.000 1.00000 2.950 1.000     13.664  23.000
 1234 3.010 2.617  3.403 1.000 1.00000 3.010 1.000     36.257  23.000
 1235 2.980 2.590  3.370 1.000 1.00000 2.980 1.000     12.014  23.000
 1236 3.020 2.626  3.414 1.000 1.00000 3.020 1.000     22.789  23.000
 1237 2.970 2.581  3.359 1.000 1.00000 2.970 1.000      9.301  23.000
 1238 2.960 2.572  3.348 1.000 1.00000 2.960 1.000      5.667  23.000
 1239 2.970 2.581  3.359 1.000 1.00000 2.970 1.000     20.019  23.000
 1240 3.000 2.608  3.392 1.000 1.00000 3.000 1.000     22.166  23.000
 1241 2.950 2.563  3.337 1.000 1.00000 2.950 1.000     17.214  23.000
 1242 3.010 2.617  3.403 1.000 1.00000 3.010 1.000     13.129  23.000
 1243 2.990 2.599  3.381 1.000 1.00000 2.990 1.000     58.785  23.000
 1244 2.970 2.581  3.359 1.000 1.00000 2.970 1.000     27.214  23.000
 1245 2.980 2.590  3.370 1.000 1.00000 2.980 1.000     44.569  23.000
 1246 3.000 2.608  3.392 1.000 1.00000 3.000 1.000     32.023  23.000
 1247 3.000 2.608  3.392 1.000 1.00000 3.000 1.000      8.748  23.000
 1248 2.950 2.563  3.337 1.000 1.00000 2.950 1.000     16.780  23.000
 1249 3.030 2.635  3.425 1.000 1.00000 3.030 1.000     10.649  23.000
 1250 2.980 2.590  3.370 1.000 1.00000 2.980 1.000     34.966  23.000
 1251 2.950 2.563  3.337 1.000 1.00000 2.950 1.000     21.004  23.000
 1252 3.010 2.617  3.403 1.000 1.00000 3.010 1.000     35.183  23.000
 1253 2.980 2.590  3.370 1.000 1.00000 2.980 1.000     16.648  23.000
 1254 2.980 2.590  3.370 1.000 1.00000 2.980 1.000      6.881  23.000
 1255 2.980 2.590  3.370 1.000 1.00000 2.980 1.000     23.659  23.000
 1256 2.990 2.599  3.381 1.000 1.00000 2.990 1.000      9.605  23.000
 1257 2.990 2.599  3.381 1.000 1.00000 2.990 1.000      6.469  23.000
 1258 2.960 2.572  3.348 1.000 1.00000 2.960 1.000      8.628  23.000
 1259 2.970 2.581  3.359 1.000 1.00000 2.970 1.000      8.812  23.000
 1260 2.990 2.599  3.381 1.000 1.00000 2.990 1.000     18.680  23.000
 1261 3.010 2.617  3.403 1.000 1.00000 3.010 1.000     29.619  23.000
 1262 3.010 2.617  3.403 1.000 1.00000 3.010 1.000     17.885  23.000
 1263 2.960 2.572  3.348 1.000 1.00000 2.960 1.000      4.852  23.000
 1264 2.960 2.572  3.348 1.000 1.00000 2.960 1.000      6.754  23.000
 1265 3.000 2.608  3.392 1.000 1.00000 3.000 1.000     14.709  23.000
 1266 2.980 2.590  3.370 1.000 1.00000 2.980 1.000     23.524  23.000
 1267 3.010 2.617  3.403 1.000 1.00000 3.010 1.000     18.091  23.000
 1268 2.990 2.599  3.381 1.000 1.00000 2.990 1.000      5.265  23.000
 1269 3.040 2.644  3.436 1.000 1.00000 3.040 1.000     52.139  23.000
 1270 2.960 2.572  3.348 1.000 1.00000 2.960 1.000     14.959  23.000
 1271 2.960 2.572  3.348 1.000 1.00000 2.960 1.000     15.769  23.000
 1272 3.030 2.635  3.425 1.000 1.00000 3.030 1.000     29.343  23.000
 1273 3.000 2.608  3.392 1.000 1.00000 3.000 1.000      6.123  23.000
 1274 2.960 2.572  3.348 1.000 1.00000 2.960 1.000     10.471  23.000
 1275 3.000 2.608  3.392 1.000 1.00000 3.000 1.000      7.745  23.000
 1276 2.950 2.563  3.337 1.000 1.00000 2.950 1.000      2.588  23.000
 1277 2.990 2.599  3.381 1.000 1.00000 2.990 1.000     14.950  23.000
 1278 2.980 2.590  3.370 1.000 1.00000 2.980 1.000     13.068  23.000
 1279 3.030 2.635  3.425 1.000 1.00000 3.030 1.000     34.775  23.000
 1280 2.950 2.563  3.337 1.000 1.00000 2.950 1.000      3.658  23.000
 1281 3.050 2.653  3.447 1.000 1.00000 3.050 1.000     12.543  23.000
 1282 3.010 2.617  3.403 1.000 1.00000 3.010 1.000     15.137  23.000
 1283 2.990 2.599  3.381 1.000 1.00000 2.990 1.000     24.469  23.000
 1284 3.010 2.617  3.403 1.000 1.00000 3.010 1.000     23.463  23.000
 1285 3.020 2.626  3.414 1.000 1.00000 3.020 1.000     26.553  23.000
 1286 3.030 2.635  3.425 1.000 1.00000 3.030 1.000     12.586  23.000
 1287 2.960 2.572  3.348 1.000 1.00000 2.960 1.000      6.280  23.000
 1288 3.050 2.653  3.447 1.000 1.00000 3.050 1.000     14.394  23.000
 1289 3.050 2.653  3.447 1.000 1.00000 3.050 1.000     33.583  23.000
 1290 2.960 2.572  3.348 1.000 1.00000 2.960 1.000     11.311  23.000
 1291 2.980 2.590  3.370 1.000 1.00000 2.980 1.000     43.829  23.000
 1292 2.970 2.581  3.359 1.000 1.00000 2.970 1.000     10.115  23.000
 1293 2.950 2.563  3.337 1.000 1.00000 2.950 1.000      7.741  23.000
 1294 3.050 2.653  3.447 1.000 1.00000 3.050 1.000     28.261  23.000
 1295 2.980 2.590  3.370 1.000 1.00000 2.980 1.000      3.967  23.000
 1296 2.950 2.563  3.337 1.000 1.00000 2.950 1.000     12.743  23.000
 1297 2.960 2.572  3.348 1.000 1.00000 2.960 1.000     45.721  23.000
 1298 2.960 2.572  3.348 1.000 1.00000 2.960 1.000      2.770  23.000
 1299 2.970 2.581  3.359 1.000 1.00000 2.970 1.000     11.075  23.000
 1300 2.950 2.563  3.337 1.000 1.00000 2.950 1.000     21.000  23.000
