## File LOS/SB2_B2004a_1.8z_Mags_100.bpz  Fri Aug 12 23:36:45 2016
##
##Parameters used to run BPZ:
##
##AB_DIR=/home/lidenscheng/bpz-1.99.3//AB/
##ADD_CONTINUOUS_PROB=None
##ADD_SPEC_PROB=None
##CHECK=LOS/SB2_B2004a_1.8z_Mags_100.flux_comparison
##COLOR=no
##COLUMNS=losNoErrors.columns
##CONVOLVE_P=yes
##DELTA_M_0=0.0
##DZ=0.01
##EXCLUDE=none
##FC=None
##FILTER_DIR=/home/lidenscheng/MK_DirectSim/filters/
##GET_Z=yes
##INPUT=LOS/SB2_B2004a_1.8z_Mags_100.txt
##INTERACTIVE=yes
##INTERP=0
##MADAU=no
##MAG=yes
##MEAN_IGM=yes
##MERGE_PEAKS=no
##MIN_MAGERR=0.001
##MIN_RMS=0.05
##NEW_AB=no
##NMAX=None
##NTYPES=None
##N_PEAKS=1
##ODDS=0.95
##ONLY_TYPE=no
##OUTPUT=LOS/SB2_B2004a_1.8z_Mags_100.bpz
##PHOTO_ERRORS=no
##PLOTS=no
##PRIOR=none
##PROBS=no
##PROBS2=no
##PROBS_LITE=LOS/SB2_B2004a_1.8z_Mags_100.probs
##P_MIN=0.01
##SED_DIR=/home/lidenscheng/MK_DirectSim/SEDs/
##SPECTRA=SB2.list
##VERBOSE=yes
##ZC=None
##ZMAX=10.0
##ZMIN=0.01
##ZP_OFFSETS=0.0
##Z_THR=0
##
##Column information
##
# 1 ID
# 2 Z_B
# 3 Z_B_MIN
# 4 Z_B_MAX
# 5 T_B
# 6 ODDS    
# 7 Z_ML
# 8 T_ML
# 9 CHI-SQUARED
# 10 M_0
##
    1 1.850 1.571  2.129 1.000 1.00000 1.850 1.000      2.276  23.000
    2 1.860 1.580  2.140 1.000 1.00000 1.850 1.000      2.282  23.000
    3 1.860 1.580  2.140 1.000 1.00000 1.850 1.000      2.566  23.000
    4 1.860 1.580  2.140 1.000 1.00000 1.850 1.000      2.351  23.000
    5 1.890 1.607  2.173 1.000 1.00000 1.890 1.000     36.537  23.000
    6 1.860 1.580  2.140 1.000 1.00000 1.850 1.000      2.896  23.000
    7 1.850 1.571  2.129 1.000 1.00000 1.850 1.000      2.276  23.000
    8 1.850 1.571  2.129 1.000 1.00000 1.850 1.000      2.479  23.000
    9 1.860 1.580  2.140 1.000 1.00000 1.850 1.000      3.302  23.000
   10 1.850 1.571  2.129 1.000 1.00000 1.850 1.000      2.396  23.000
   11 1.860 1.580  2.140 1.000 1.00000 1.850 1.000      4.868  23.000
   12 1.860 1.580  2.140 1.000 1.00000 1.850 1.000      2.583  23.000
   13 1.860 1.580  2.140 1.000 1.00000 1.850 1.000      2.327  23.000
   14 1.860 1.580  2.140 1.000 1.00000 1.850 1.000      4.842  23.000
   15 1.890 1.607  2.173 1.000 1.00000 1.890 1.000     27.661  23.000
   16 1.850 1.571  2.129 1.000 1.00000 1.850 1.000      2.276  23.000
   17 1.860 1.580  2.140 1.000 1.00000 1.850 1.000      2.316  23.000
   18 1.860 1.580  2.140 1.000 1.00000 1.860 1.000      5.928  23.000
   19 1.880 1.598  2.162 1.000 1.00000 1.880 1.000     10.535  23.000
   20 1.850 1.571  2.129 1.000 1.00000 1.850 1.000      2.479  23.000
   21 1.860 1.580  2.140 1.000 1.00000 1.850 1.000      2.279  23.000
   22 1.870 1.589  2.151 1.000 1.00000 1.880 1.000      9.502  23.000
   23 1.880 1.598  2.162 1.000 1.00000 1.880 1.000     14.144  23.000
   24 1.850 1.571  2.129 1.000 1.00000 1.850 1.000      2.308  23.000
   25 1.860 1.580  2.140 1.000 1.00000 1.860 1.000      5.547  23.000
   26 1.850 1.571  2.129 1.000 1.00000 1.850 1.000      2.275  23.000
   27 1.860 1.580  2.140 1.000 1.00000 1.850 1.000      3.419  23.000
   28 1.850 1.571  2.129 1.000 1.00000 1.850 1.000      2.592  23.000
   29 1.870 1.589  2.151 1.000 1.00000 1.880 1.000      8.267  23.000
   30 1.850 1.571  2.129 1.000 1.00000 1.850 1.000      2.284  23.000
   31 1.850 1.571  2.129 1.000 1.00000 1.850 1.000      2.297  23.000
   32 1.860 1.580  2.140 1.000 1.00000 1.860 1.000      5.662  23.000
   33 1.880 1.598  2.162 1.000 1.00000 1.880 1.000     12.124  23.000
   34 1.860 1.580  2.140 1.000 1.00000 1.850 1.000      2.280  23.000
   35 1.860 1.580  2.140 1.000 1.00000 1.850 1.000      3.507  23.000
   36 1.860 1.580  2.140 1.000 1.00000 1.860 1.000      5.898  23.000
   37 1.860 1.580  2.140 1.000 1.00000 1.860 1.000      5.296  23.000
   38 1.860 1.580  2.140 1.000 1.00000 1.850 1.000      4.565  23.000
   39 1.860 1.580  2.140 1.000 1.00000 1.850 1.000      4.327  23.000
   40 1.860 1.580  2.140 1.000 1.00000 1.850 1.000      2.471  23.000
   41 1.860 1.580  2.140 1.000 1.00000 1.850 1.000      2.471  23.000
   42 1.850 1.571  2.129 1.000 1.00000 1.850 1.000      2.566  23.000
   43 1.860 1.580  2.140 1.000 1.00000 1.860 1.000      5.988  23.000
   44 1.860 1.580  2.140 1.000 1.00000 1.850 1.000      2.407  23.000
   45 1.850 1.571  2.129 1.000 1.00000 1.850 1.000      2.331  23.000
   46 1.860 1.580  2.140 1.000 1.00000 1.850 1.000      2.310  23.000
   47 1.850 1.571  2.129 1.000 1.00000 1.850 1.000      2.343  23.000
   48 1.850 1.571  2.129 1.000 1.00000 1.850 1.000      2.380  23.000
   49 1.880 1.598  2.162 1.000 1.00000 1.880 1.000     11.934  23.000
   50 1.870 1.589  2.151 1.000 1.00000 1.880 1.000      7.820  23.000
   51 1.850 1.571  2.129 1.000 1.00000 1.850 1.000      2.275  23.000
   52 1.850 1.571  2.129 1.000 1.00000 1.850 1.000      2.868  23.000
   53 1.860 1.580  2.140 1.000 1.00000 1.850 1.000      2.395  23.000
   54 1.850 1.571  2.129 1.000 1.00000 1.850 1.000      2.276  23.000
   55 1.860 1.580  2.140 1.000 1.00000 1.850 1.000      2.355  23.000
   56 1.870 1.589  2.151 1.000 1.00000 1.880 1.000      8.092  23.000
   57 1.870 1.589  2.151 1.000 1.00000 1.880 1.000      7.116  23.000
   58 1.850 1.571  2.129 1.000 1.00000 1.850 1.000      2.380  23.000
   59 1.850 1.571  2.129 1.000 1.00000 1.850 1.000      2.343  23.000
   60 1.850 1.571  2.129 1.000 1.00000 1.850 1.000      2.719  23.000
   61 1.870 1.589  2.151 1.000 1.00000 1.880 1.000      7.365  23.000
   62 1.850 1.571  2.129 1.000 1.00000 1.850 1.000      2.414  23.000
   63 1.860 1.580  2.140 1.000 1.00000 1.850 1.000      2.299  23.000
   64 1.850 1.571  2.129 1.000 1.00000 1.850 1.000      2.408  23.000
   65 1.860 1.580  2.140 1.000 1.00000 1.850 1.000      3.830  23.000
   66 1.850 1.571  2.129 1.000 1.00000 1.850 1.000      2.402  23.000
   67 1.880 1.598  2.162 1.000 1.00000 1.880 1.000     15.575  23.000
   68 1.860 1.580  2.140 1.000 1.00000 1.850 1.000      3.002  23.000
   69 1.860 1.580  2.140 1.000 1.00000 1.850 1.000      4.974  23.000
   70 1.850 1.571  2.129 1.000 1.00000 1.850 1.000      3.051  23.000
   71 1.850 1.571  2.129 1.000 1.00000 1.850 1.000      2.278  23.000
   72 1.860 1.580  2.140 1.000 1.00000 1.850 1.000      2.425  23.000
   73 1.850 1.571  2.129 1.000 1.00000 1.850 1.000      2.592  23.000
   74 1.850 1.571  2.129 1.000 1.00000 1.850 1.000      2.396  23.000
   75 1.860 1.580  2.140 1.000 1.00000 1.850 1.000      3.130  23.000
   76 1.860 1.580  2.140 1.000 1.00000 1.850 1.000      2.754  23.000
   77 1.850 1.571  2.129 1.000 1.00000 1.850 1.000      2.880  23.000
   78 1.860 1.580  2.140 1.000 1.00000 1.850 1.000      2.364  23.000
   79 1.850 1.571  2.129 1.000 1.00000 1.850 1.000      2.287  23.000
   80 1.880 1.598  2.162 1.000 1.00000 1.880 1.000     16.325  23.000
   81 1.860 1.580  2.140 1.000 1.00000 1.850 1.000      4.304  23.000
   82 1.860 1.580  2.140 1.000 1.00000 1.850 1.000      3.472  23.000
   83 1.860 1.580  2.140 1.000 1.00000 1.850 1.000      2.611  23.000
   84 1.880 1.598  2.162 1.000 1.00000 1.880 1.000     12.956  23.000
   85 1.850 1.571  2.129 1.000 1.00000 1.850 1.000      2.278  23.000
   86 1.880 1.598  2.162 1.000 1.00000 1.880 1.000     14.738  23.000
   87 1.850 1.571  2.129 1.000 1.00000 1.850 1.000      2.352  23.000
   88 1.850 1.571  2.129 1.000 1.00000 1.850 1.000      2.486  23.000
   89 1.850 1.571  2.129 1.000 1.00000 1.850 1.000      2.295  23.000
   90 1.850 1.571  2.129 1.000 1.00000 1.850 1.000      2.445  23.000
   91 1.880 1.598  2.162 1.000 1.00000 1.880 1.000     11.746  23.000
   92 1.860 1.580  2.140 1.000 1.00000 1.850 1.000      2.457  23.000
   93 1.860 1.580  2.140 1.000 1.00000 1.850 1.000      2.431  23.000
   94 1.860 1.580  2.140 1.000 1.00000 1.850 1.000      2.743  23.000
   95 1.850 1.571  2.129 1.000 1.00000 1.850 1.000      2.601  23.000
   96 1.860 1.580  2.140 1.000 1.00000 1.850 1.000      2.464  23.000
   97 1.850 1.571  2.129 1.000 1.00000 1.850 1.000      2.275  23.000
   98 1.860 1.580  2.140 1.000 1.00000 1.850 1.000      4.715  23.000
   99 1.860 1.580  2.140 1.000 1.00000 1.850 1.000      2.884  23.000
  100 1.860 1.580  2.140 1.000 1.00000 1.850 1.000      5.000  23.000
