## File LOS/SB2_B2004a_2.7z_Mags_200.bpz  Fri Aug 12 23:37:10 2016
##
##Parameters used to run BPZ:
##
##AB_DIR=/home/lidenscheng/bpz-1.99.3//AB/
##ADD_CONTINUOUS_PROB=None
##ADD_SPEC_PROB=None
##CHECK=LOS/SB2_B2004a_2.7z_Mags_200.flux_comparison
##COLOR=no
##COLUMNS=losNoErrors.columns
##CONVOLVE_P=yes
##DELTA_M_0=0.0
##DZ=0.01
##EXCLUDE=none
##FC=None
##FILTER_DIR=/home/lidenscheng/MK_DirectSim/filters/
##GET_Z=yes
##INPUT=LOS/SB2_B2004a_2.7z_Mags_200.txt
##INTERACTIVE=yes
##INTERP=0
##MADAU=no
##MAG=yes
##MEAN_IGM=yes
##MERGE_PEAKS=no
##MIN_MAGERR=0.001
##MIN_RMS=0.05
##NEW_AB=no
##NMAX=None
##NTYPES=None
##N_PEAKS=1
##ODDS=0.95
##ONLY_TYPE=no
##OUTPUT=LOS/SB2_B2004a_2.7z_Mags_200.bpz
##PHOTO_ERRORS=no
##PLOTS=no
##PRIOR=none
##PROBS=no
##PROBS2=no
##PROBS_LITE=LOS/SB2_B2004a_2.7z_Mags_200.probs
##P_MIN=0.01
##SED_DIR=/home/lidenscheng/MK_DirectSim/SEDs/
##SPECTRA=SB2.list
##VERBOSE=yes
##ZC=None
##ZMAX=10.0
##ZMIN=0.01
##ZP_OFFSETS=0.0
##Z_THR=0
##
##Column information
##
# 1 ID
# 2 Z_B
# 3 Z_B_MIN
# 4 Z_B_MAX
# 5 T_B
# 6 ODDS    
# 7 Z_ML
# 8 T_ML
# 9 CHI-SQUARED
# 10 M_0
##
    1 2.840 2.464  3.216 1.000 1.00000 2.840 1.000     42.099  23.000
    2 2.740 2.373  3.107 1.000 1.00000 2.740 1.000      2.102  23.000
    3 2.750 2.383  3.117 1.000 1.00000 2.750 1.000      4.998  23.000
    4 2.790 2.419  3.161 1.000 1.00000 2.790 1.000     20.398  23.000
    5 2.780 2.410  3.150 1.000 1.00000 2.780 1.000     32.345  23.000
    6 2.760 2.392  3.128 1.000 1.00000 2.760 1.000     21.360  23.000
    7 2.840 2.464  3.216 1.000 1.00000 2.840 1.000     68.806  23.000
    8 2.770 2.401  3.139 1.000 1.00000 2.770 1.000     10.251  23.000
    9 2.760 2.392  3.128 1.000 1.00000 2.760 1.000     14.340  23.000
   10 2.750 2.383  3.117 1.000 1.00000 2.750 1.000      9.042  23.000
   11 2.850 2.473  3.227 1.000 1.00000 2.850 1.000     71.619  23.000
   12 2.730 2.364  3.096 1.000 1.00000 2.730 1.000      1.230  23.000
   13 2.760 2.392  3.128 1.000 1.00000 2.760 1.000     18.811  23.000
   14 2.740 2.373  3.107 1.000 1.00000 2.740 1.000      1.374  23.000
   15 2.820 2.446  3.194 1.000 1.00000 2.820 1.000     31.104  23.000
   16 2.800 2.428  3.172 1.000 1.00000 2.800 1.000     27.104  23.000
   17 2.780 2.410  3.150 1.000 1.00000 2.780 1.000     29.765  23.000
   18 2.760 2.392  3.128 1.000 1.00000 2.760 1.000     22.896  23.000
   19 2.840 2.464  3.216 1.000 1.00000 2.840 1.000     41.818  23.000
   20 2.750 2.383  3.117 1.000 1.00000 2.750 1.000      8.805  23.000
   21 2.750 2.383  3.117 1.000 1.00000 2.750 1.000      7.322  23.000
   22 2.740 2.373  3.107 1.000 1.00000 2.740 1.000      1.783  23.000
   23 2.790 2.419  3.161 1.000 1.00000 2.790 1.000     26.054  23.000
   24 2.710 2.346  3.074 1.000 1.00000 2.710 1.000      1.129  23.000
   25 2.750 2.383  3.117 1.000 1.00000 2.750 1.000      2.755  23.000
   26 2.790 2.419  3.161 1.000 1.00000 2.790 1.000     38.308  23.000
   27 2.760 2.392  3.128 1.000 1.00000 2.760 1.000      5.364  23.000
   28 2.760 2.392  3.128 1.000 1.00000 2.760 1.000     22.993  23.000
   29 2.770 2.401  3.139 1.000 1.00000 2.770 1.000      6.704  23.000
   30 2.770 2.401  3.139 1.000 1.00000 2.770 1.000     15.312  23.000
   31 2.750 2.383  3.117 1.000 1.00000 2.750 1.000     13.271  23.000
   32 2.840 2.464  3.216 1.000 1.00000 2.840 1.000     23.443  23.000
   33 2.790 2.419  3.161 1.000 1.00000 2.790 1.000     20.919  23.000
   34 2.730 2.364  3.096 1.000 1.00000 2.730 1.000      1.770  23.000
   35 2.770 2.401  3.139 1.000 1.00000 2.770 1.000     30.767  23.000
   36 2.780 2.410  3.150 1.000 1.00000 2.780 1.000     22.810  23.000
   37 2.750 2.383  3.117 1.000 1.00000 2.750 1.000      9.833  23.000
   38 2.850 2.473  3.227 1.000 1.00000 2.850 1.000     61.852  23.000
   39 2.760 2.392  3.128 1.000 1.00000 2.760 1.000     10.451  23.000
   40 2.790 2.419  3.161 1.000 1.00000 2.790 1.000     12.952  23.000
   41 2.770 2.401  3.139 1.000 1.00000 2.770 1.000     11.534  23.000
   42 2.780 2.410  3.150 1.000 1.00000 2.780 1.000     25.078  23.000
   43 2.760 2.392  3.128 1.000 1.00000 2.760 1.000     27.026  23.000
   44 2.750 2.383  3.117 1.000 1.00000 2.750 1.000      4.458  23.000
   45 2.760 2.392  3.128 1.000 1.00000 2.760 1.000     14.962  23.000
   46 2.780 2.410  3.150 1.000 1.00000 2.780 1.000     28.235  23.000
   47 2.740 2.373  3.107 1.000 1.00000 2.740 1.000      4.904  23.000
   48 2.810 2.437  3.183 1.000 1.00000 2.810 1.000     20.203  23.000
   49 2.760 2.392  3.128 1.000 1.00000 2.760 1.000     24.624  23.000
   50 2.850 2.473  3.227 1.000 1.00000 2.850 1.000     49.191  23.000
   51 2.820 2.446  3.194 1.000 1.00000 2.820 1.000     43.671  23.000
   52 2.730 2.364  3.096 1.000 1.00000 2.730 1.000      8.143  23.000
   53 2.850 2.473  3.227 1.000 1.00000 2.850 1.000     44.266  23.000
   54 2.760 2.392  3.128 1.000 1.00000 2.760 1.000     35.141  23.000
   55 2.760 2.392  3.128 1.000 1.00000 2.760 1.000     16.591  23.000
   56 2.820 2.446  3.194 1.000 1.00000 2.820 1.000     52.278  23.000
   57 2.750 2.383  3.117 1.000 1.00000 2.750 1.000      3.646  23.000
   58 2.760 2.392  3.128 1.000 1.00000 2.760 1.000     19.436  23.000
   59 2.760 2.392  3.128 1.000 1.00000 2.760 1.000     27.812  23.000
   60 2.770 2.401  3.139 1.000 1.00000 2.770 1.000     36.398  23.000
   61 2.750 2.383  3.117 1.000 1.00000 2.750 1.000      5.089  23.000
   62 2.800 2.428  3.172 1.000 1.00000 2.800 1.000     26.329  23.000
   63 2.760 2.392  3.128 1.000 1.00000 2.760 1.000     10.851  23.000
   64 2.800 2.428  3.172 1.000 1.00000 2.800 1.000     48.351  23.000
   65 2.760 2.392  3.128 1.000 1.00000 2.760 1.000      5.410  23.000
   66 2.840 2.464  3.216 1.000 1.00000 2.840 1.000     32.412  23.000
   67 2.770 2.401  3.139 1.000 1.00000 2.770 1.000     25.766  23.000
   68 2.760 2.392  3.128 1.000 1.00000 2.760 1.000      8.967  23.000
   69 2.770 2.401  3.139 1.000 1.00000 2.770 1.000     14.569  23.000
   70 2.810 2.437  3.183 1.000 1.00000 2.810 1.000     12.515  23.000
   71 2.750 2.383  3.117 1.000 1.00000 2.750 1.000      6.598  23.000
   72 2.750 2.383  3.117 1.000 1.00000 2.750 1.000      8.963  23.000
   73 2.830 2.455  3.205 1.000 1.00000 2.830 1.000     28.220  23.000
   74 2.760 2.392  3.128 1.000 1.00000 2.760 1.000     26.147  23.000
   75 2.780 2.410  3.150 1.000 1.00000 2.780 1.000     18.723  23.000
   76 2.760 2.392  3.128 1.000 1.00000 2.760 1.000     15.537  23.000
   77 2.810 2.437  3.183 1.000 1.00000 2.810 1.000     28.360  23.000
   78 2.780 2.410  3.150 1.000 1.00000 2.780 1.000     10.962  23.000
   79 2.790 2.419  3.161 1.000 1.00000 2.790 1.000      7.924  23.000
   80 2.760 2.392  3.128 1.000 1.00000 2.760 1.000     14.453  23.000
   81 2.730 2.364  3.096 1.000 1.00000 2.730 1.000      1.284  23.000
   82 2.740 2.373  3.107 1.000 1.00000 2.740 1.000      6.846  23.000
   83 2.790 2.419  3.161 1.000 1.00000 2.790 1.000     10.254  23.000
   84 2.760 2.392  3.128 1.000 1.00000 2.760 1.000     25.432  23.000
   85 2.780 2.410  3.150 1.000 1.00000 2.780 1.000     18.581  23.000
   86 2.760 2.392  3.128 1.000 1.00000 2.760 1.000     12.166  23.000
   87 2.770 2.401  3.139 1.000 1.00000 2.770 1.000     21.058  23.000
   88 2.760 2.392  3.128 1.000 1.00000 2.760 1.000     25.262  23.000
   89 2.760 2.392  3.128 1.000 1.00000 2.760 1.000     26.723  23.000
   90 2.730 2.364  3.096 1.000 1.00000 2.730 1.000      0.793  23.000
   91 2.780 2.410  3.150 1.000 1.00000 2.780 1.000     29.326  23.000
   92 2.760 2.392  3.128 1.000 1.00000 2.760 1.000     12.948  23.000
   93 2.780 2.410  3.150 1.000 1.00000 2.780 1.000     16.501  23.000
   94 2.760 2.392  3.128 1.000 1.00000 2.760 1.000     11.279  23.000
   95 2.750 2.383  3.117 1.000 1.00000 2.750 1.000     20.833  23.000
   96 2.750 2.383  3.117 1.000 1.00000 2.750 1.000     15.296  23.000
   97 2.760 2.392  3.128 1.000 1.00000 2.760 1.000      5.198  23.000
   98 2.840 2.464  3.216 1.000 1.00000 2.840 1.000     47.541  23.000
   99 2.770 2.401  3.139 1.000 1.00000 2.770 1.000     15.227  23.000
  100 2.740 2.373  3.107 1.000 1.00000 2.740 1.000      6.997  23.000
  101 2.740 2.373  3.107 1.000 1.00000 2.740 1.000      2.729  23.000
  102 2.770 2.401  3.139 1.000 1.00000 2.770 1.000     26.261  23.000
  103 2.770 2.401  3.139 1.000 1.00000 2.770 1.000     31.414  23.000
  104 2.750 2.383  3.117 1.000 1.00000 2.750 1.000      6.009  23.000
  105 2.750 2.383  3.117 1.000 1.00000 2.750 1.000      3.636  23.000
  106 2.790 2.419  3.161 1.000 1.00000 2.790 1.000     12.208  23.000
  107 2.750 2.383  3.117 1.000 1.00000 2.750 1.000     14.208  23.000
  108 2.770 2.401  3.139 1.000 1.00000 2.770 1.000     17.503  23.000
  109 2.760 2.392  3.128 1.000 1.00000 2.760 1.000     11.294  23.000
  110 2.800 2.428  3.172 1.000 1.00000 2.800 1.000     33.616  23.000
  111 2.760 2.392  3.128 1.000 1.00000 2.760 1.000      6.307  23.000
  112 2.750 2.383  3.117 1.000 1.00000 2.750 1.000     12.632  23.000
  113 2.800 2.428  3.172 1.000 1.00000 2.800 1.000     25.846  23.000
  114 2.750 2.383  3.117 1.000 1.00000 2.750 1.000     12.228  23.000
  115 2.750 2.383  3.117 1.000 1.00000 2.750 1.000     14.960  23.000
  116 2.800 2.428  3.172 1.000 1.00000 2.800 1.000     30.380  23.000
  117 2.760 2.392  3.128 1.000 1.00000 2.760 1.000     11.071  23.000
  118 2.750 2.383  3.117 1.000 1.00000 2.750 1.000     14.141  23.000
  119 2.830 2.455  3.205 1.000 1.00000 2.830 1.000     56.030  23.000
  120 2.850 2.473  3.227 1.000 1.00000 2.850 1.000    108.236  23.000
  121 2.750 2.383  3.117 1.000 1.00000 2.750 1.000      4.374  23.000
  122 2.760 2.392  3.128 1.000 1.00000 2.760 1.000      5.436  23.000
  123 2.800 2.428  3.172 1.000 1.00000 2.800 1.000     33.135  23.000
  124 2.760 2.392  3.128 1.000 1.00000 2.760 1.000     11.613  23.000
  125 2.760 2.392  3.128 1.000 1.00000 2.760 1.000     22.863  23.000
  126 2.760 2.392  3.128 1.000 1.00000 2.760 1.000     14.466  23.000
  127 2.760 2.392  3.128 1.000 1.00000 2.760 1.000     17.063  23.000
  128 2.800 2.428  3.172 1.000 1.00000 2.800 1.000     20.651  23.000
  129 2.850 2.473  3.227 1.000 1.00000 2.850 1.000     65.617  23.000
  130 2.750 2.383  3.117 1.000 1.00000 2.750 1.000     10.092  23.000
  131 2.760 2.392  3.128 1.000 1.00000 2.760 1.000     28.078  23.000
  132 2.790 2.419  3.161 1.000 1.00000 2.790 1.000     30.749  23.000
  133 2.760 2.392  3.128 1.000 1.00000 2.760 1.000      4.104  23.000
  134 2.760 2.392  3.128 1.000 1.00000 2.760 1.000     21.663  23.000
  135 2.760 2.392  3.128 1.000 1.00000 2.760 1.000     23.808  23.000
  136 2.750 2.383  3.117 1.000 1.00000 2.750 1.000      4.362  23.000
  137 2.800 2.428  3.172 1.000 1.00000 2.800 1.000     17.558  23.000
  138 2.810 2.437  3.183 1.000 1.00000 2.810 1.000     50.658  23.000
  139 2.760 2.392  3.128 1.000 1.00000 2.760 1.000     24.881  23.000
  140 2.810 2.437  3.183 1.000 1.00000 2.810 1.000     26.617  23.000
  141 2.770 2.401  3.139 1.000 1.00000 2.770 1.000     54.049  23.000
  142 2.750 2.383  3.117 1.000 1.00000 2.750 1.000      3.148  23.000
  143 2.800 2.428  3.172 1.000 1.00000 2.800 1.000     39.740  23.000
  144 2.760 2.392  3.128 1.000 1.00000 2.760 1.000     11.112  23.000
  145 2.790 2.419  3.161 1.000 1.00000 2.790 1.000     58.697  23.000
  146 2.750 2.383  3.117 1.000 1.00000 2.750 1.000     15.766  23.000
  147 2.830 2.455  3.205 1.000 1.00000 2.830 1.000     35.747  23.000
  148 2.730 2.364  3.096 1.000 1.00000 2.730 1.000      5.479  23.000
  149 2.760 2.392  3.128 1.000 1.00000 2.760 1.000     32.065  23.000
  150 2.860 2.482  3.238 1.000 1.00000 2.860 1.000     72.752  23.000
  151 2.760 2.392  3.128 1.000 1.00000 2.760 1.000      9.829  23.000
  152 2.760 2.392  3.128 1.000 1.00000 2.760 1.000     20.010  23.000
  153 2.750 2.383  3.117 1.000 1.00000 2.750 1.000      6.981  23.000
  154 2.760 2.392  3.128 1.000 1.00000 2.760 1.000     16.650  23.000
  155 2.830 2.455  3.205 1.000 1.00000 2.830 1.000     50.634  23.000
  156 2.830 2.455  3.205 1.000 1.00000 2.830 1.000     59.259  23.000
  157 2.760 2.392  3.128 1.000 1.00000 2.760 1.000     11.960  23.000
  158 2.750 2.383  3.117 1.000 1.00000 2.750 1.000      5.859  23.000
  159 2.750 2.383  3.117 1.000 1.00000 2.750 1.000      5.036  23.000
  160 2.780 2.410  3.150 1.000 1.00000 2.780 1.000     17.358  23.000
  161 2.830 2.455  3.205 1.000 1.00000 2.830 1.000     59.571  23.000
  162 2.760 2.392  3.128 1.000 1.00000 2.760 1.000     31.915  23.000
  163 2.760 2.392  3.128 1.000 1.00000 2.760 1.000     10.389  23.000
  164 2.810 2.437  3.183 1.000 1.00000 2.810 1.000     39.194  23.000
  165 2.800 2.428  3.172 1.000 1.00000 2.800 1.000     24.871  23.000
  166 2.770 2.401  3.139 1.000 1.00000 2.770 1.000      9.325  23.000
  167 2.760 2.392  3.128 1.000 1.00000 2.760 1.000     14.434  23.000
  168 2.740 2.373  3.107 1.000 1.00000 2.740 1.000      4.666  23.000
  169 2.790 2.419  3.161 1.000 1.00000 2.790 1.000     24.195  23.000
  170 2.760 2.392  3.128 1.000 1.00000 2.760 1.000     21.994  23.000
  171 2.780 2.410  3.150 1.000 1.00000 2.780 1.000     28.508  23.000
  172 2.760 2.392  3.128 1.000 1.00000 2.760 1.000     16.816  23.000
  173 2.830 2.455  3.205 1.000 1.00000 2.830 1.000     22.657  23.000
  174 2.750 2.383  3.117 1.000 1.00000 2.750 1.000     10.554  23.000
  175 2.750 2.383  3.117 1.000 1.00000 2.750 1.000     12.184  23.000
  176 2.760 2.392  3.128 1.000 1.00000 2.760 1.000     12.203  23.000
  177 2.790 2.419  3.161 1.000 1.00000 2.790 1.000     13.763  23.000
  178 2.820 2.446  3.194 1.000 1.00000 2.820 1.000     26.847  23.000
  179 2.730 2.364  3.096 1.000 1.00000 2.730 1.000      2.878  23.000
  180 2.750 2.383  3.117 1.000 1.00000 2.750 1.000      7.032  23.000
  181 2.760 2.392  3.128 1.000 1.00000 2.760 1.000     14.625  23.000
  182 2.750 2.383  3.117 1.000 1.00000 2.750 1.000      7.277  23.000
  183 2.850 2.473  3.227 1.000 1.00000 2.850 1.000     72.483  23.000
  184 2.760 2.392  3.128 1.000 1.00000 2.760 1.000     19.723  23.000
  185 2.760 2.392  3.128 1.000 1.00000 2.760 1.000     20.551  23.000
  186 2.840 2.464  3.216 1.000 1.00000 2.840 1.000     59.346  23.000
  187 2.780 2.410  3.150 1.000 1.00000 2.780 1.000     14.139  23.000
  188 2.780 2.410  3.150 1.000 1.00000 2.780 1.000     18.417  23.000
  189 2.830 2.455  3.205 1.000 1.00000 2.830 1.000     13.272  23.000
  190 2.730 2.364  3.096 1.000 1.00000 2.730 1.000      0.999  23.000
  191 2.760 2.392  3.128 1.000 1.00000 2.760 1.000     24.998  23.000
  192 2.740 2.373  3.107 1.000 1.00000 2.740 1.000      1.534  23.000
  193 2.760 2.392  3.128 1.000 1.00000 2.760 1.000     20.634  23.000
  194 2.750 2.383  3.117 1.000 1.00000 2.750 1.000      6.674  23.000
  195 2.760 2.392  3.128 1.000 1.00000 2.760 1.000      9.489  23.000
  196 2.750 2.383  3.117 1.000 1.00000 2.750 1.000      4.146  23.000
  197 2.740 2.373  3.107 1.000 1.00000 2.740 1.000      2.258  23.000
  198 2.770 2.401  3.139 1.000 1.00000 2.770 1.000     31.067  23.000
  199 2.780 2.410  3.150 1.000 1.00000 2.780 1.000     22.919  23.000
  200 2.770 2.401  3.139 1.000 1.00000 2.770 1.000     20.815  23.000
