## File LOS/SB2_B2004a_1.7z_Mags_1100.bpz  Sat Aug 13 01:30:29 2016
##
##Parameters used to run BPZ:
##
##AB_DIR=/home/lidenscheng/bpz-1.99.3//AB/
##ADD_CONTINUOUS_PROB=None
##ADD_SPEC_PROB=None
##CHECK=LOS/SB2_B2004a_1.7z_Mags_1100.flux_comparison
##COLOR=no
##COLUMNS=losNoErrors.columns
##CONVOLVE_P=yes
##DELTA_M_0=0.0
##DZ=0.01
##EXCLUDE=none
##FC=None
##FILTER_DIR=/home/lidenscheng/MK_DirectSim/filters/
##GET_Z=yes
##INPUT=LOS/SB2_B2004a_1.7z_Mags_1100.txt
##INTERACTIVE=yes
##INTERP=0
##MADAU=no
##MAG=yes
##MEAN_IGM=yes
##MERGE_PEAKS=no
##MIN_MAGERR=0.001
##MIN_RMS=0.05
##NEW_AB=yes
##NMAX=None
##NTYPES=None
##N_PEAKS=1
##ODDS=0.95
##ONLY_TYPE=no
##OUTPUT=LOS/SB2_B2004a_1.7z_Mags_1100.bpz
##PHOTO_ERRORS=no
##PLOTS=no
##PRIOR=none
##PROBS=no
##PROBS2=no
##PROBS_LITE=LOS/SB2_B2004a_1.7z_Mags_1100.probs
##P_MIN=0.01
##SED_DIR=/home/lidenscheng/MK_DirectSim/SEDs/
##SPECTRA=SB2.list
##VERBOSE=yes
##ZC=None
##ZMAX=10.0
##ZMIN=0.01
##ZP_OFFSETS=0.0
##Z_THR=0
##
##Column information
##
# 1 ID
# 2 Z_B
# 3 Z_B_MIN
# 4 Z_B_MAX
# 5 T_B
# 6 ODDS    
# 7 Z_ML
# 8 T_ML
# 9 CHI-SQUARED
# 10 M_0
##
    1 1.700 1.435  1.965 1.000 1.00000 1.700 1.000      4.098  23.000
    2 1.710 1.444  1.976 1.000 1.00000 1.710 1.000      9.433  23.000
    3 1.710 1.444  1.976 1.000 1.00000 1.710 1.000      8.446  23.000
    4 1.700 1.435  1.965 1.000 1.00000 1.700 1.000      3.923  23.000
    5 1.700 1.435  1.965 1.000 1.00000 1.700 1.000      4.576  23.000
    6 1.700 1.435  1.965 1.000 1.00000 1.700 1.000      4.149  23.000
    7 1.700 1.435  1.965 1.000 1.00000 1.700 1.000      4.098  23.000
    8 1.710 1.444  1.976 1.000 1.00000 1.710 1.000     18.622  23.000
    9 1.700 1.435  1.965 1.000 1.00000 1.700 1.000      4.458  23.000
   10 1.700 1.435  1.965 1.000 1.00000 1.700 1.000      4.132  23.000
   11 1.700 1.435  1.965 1.000 1.00000 1.700 1.000      3.985  23.000
   12 1.700 1.435  1.965 1.000 1.00000 1.700 1.000      4.576  23.000
   13 1.700 1.435  1.965 1.000 1.00000 1.700 1.000      4.082  23.000
   14 1.700 1.435  1.965 1.000 1.00000 1.700 1.000      4.149  23.000
   15 1.700 1.435  1.965 1.000 1.00000 1.700 1.000      4.132  23.000
   16 1.700 1.435  1.965 1.000 1.00000 1.700 1.000      4.098  23.000
   17 1.700 1.435  1.965 1.000 1.00000 1.700 1.000      3.953  23.000
   18 1.700 1.435  1.965 1.000 1.00000 1.700 1.000      4.115  23.000
   19 1.700 1.435  1.965 1.000 1.00000 1.700 1.000      5.073  23.000
   20 1.700 1.435  1.965 1.000 1.00000 1.700 1.000      4.201  23.000
   21 1.700 1.435  1.965 1.000 1.00000 1.700 1.000      5.640  23.000
   22 1.700 1.435  1.965 1.000 1.00000 1.700 1.000      5.027  23.000
   23 1.700 1.435  1.965 1.000 1.00000 1.700 1.000      5.050  23.000
   24 1.700 1.435  1.965 1.000 1.00000 1.700 1.000      3.877  23.000
   25 1.700 1.435  1.965 1.000 1.00000 1.700 1.000      3.938  23.000
   26 1.700 1.435  1.965 1.000 1.00000 1.700 1.000      3.953  23.000
   27 1.700 1.435  1.965 1.000 1.00000 1.700 1.000      4.401  23.000
   28 1.700 1.435  1.965 1.000 1.00000 1.700 1.000      6.729  23.000
   29 1.700 1.435  1.965 1.000 1.00000 1.700 1.000      4.401  23.000
   30 1.700 1.435  1.965 1.000 1.00000 1.700 1.000      6.365  23.000
   31 1.700 1.435  1.965 1.000 1.00000 1.700 1.000      5.050  23.000
   32 1.700 1.435  1.965 1.000 1.00000 1.700 1.000      6.306  23.000
   33 1.700 1.435  1.965 1.000 1.00000 1.700 1.000      4.982  23.000
   34 1.700 1.435  1.965 1.000 1.00000 1.700 1.000      5.167  23.000
   35 1.700 1.435  1.965 1.000 1.00000 1.700 1.000      4.308  23.000
   36 1.700 1.435  1.965 1.000 1.00000 1.700 1.000      5.511  23.000
   37 1.700 1.435  1.965 1.000 1.00000 1.700 1.000      4.326  23.000
   38 1.700 1.435  1.965 1.000 1.00000 1.700 1.000      4.149  23.000
   39 1.700 1.435  1.965 1.000 1.00000 1.700 1.000      4.236  23.000
   40 1.700 1.435  1.965 1.000 1.00000 1.700 1.000      6.103  23.000
   41 1.700 1.435  1.965 1.000 1.00000 1.700 1.000      7.246  23.000
   42 1.710 1.444  1.976 1.000 1.00000 1.710 1.000     14.075  23.000
   43 1.700 1.435  1.965 1.000 1.00000 1.700 1.000      4.382  23.000
   44 1.700 1.435  1.965 1.000 1.00000 1.700 1.000      4.576  23.000
   45 1.700 1.435  1.965 1.000 1.00000 1.700 1.000      3.923  23.000
   46 1.700 1.435  1.965 1.000 1.00000 1.700 1.000      4.272  23.000
   47 1.700 1.435  1.965 1.000 1.00000 1.700 1.000      4.637  23.000
   48 1.700 1.435  1.965 1.000 1.00000 1.700 1.000      4.132  23.000
   49 1.700 1.435  1.965 1.000 1.00000 1.700 1.000      3.985  23.000
   50 1.700 1.435  1.965 1.000 1.00000 1.700 1.000      3.953  23.000
   51 1.700 1.435  1.965 1.000 1.00000 1.700 1.000      5.238  23.000
   52 1.710 1.444  1.976 1.000 1.00000 1.710 1.000     16.467  23.000
   53 1.710 1.444  1.976 1.000 1.00000 1.710 1.000     18.006  23.000
   54 1.700 1.435  1.965 1.000 1.00000 1.700 1.000      4.149  23.000
   55 1.700 1.435  1.965 1.000 1.00000 1.700 1.000      4.326  23.000
   56 1.700 1.435  1.965 1.000 1.00000 1.700 1.000      6.047  23.000
   57 1.700 1.435  1.965 1.000 1.00000 1.700 1.000      4.477  23.000
   58 1.700 1.435  1.965 1.000 1.00000 1.700 1.000      4.870  23.000
   59 1.700 1.435  1.965 1.000 1.00000 1.700 1.000      4.617  23.000
   60 1.700 1.435  1.965 1.000 1.00000 1.700 1.000      4.065  23.000
   61 1.710 1.444  1.976 1.000 1.00000 1.710 1.000     12.455  23.000
   62 1.700 1.435  1.965 1.000 1.00000 1.700 1.000      4.115  23.000
   63 1.700 1.435  1.965 1.000 1.00000 1.700 1.000      6.189  23.000
   64 1.700 1.435  1.965 1.000 1.00000 1.700 1.000      7.414  23.000
   65 1.710 1.444  1.976 1.000 1.00000 1.710 1.000     12.930  23.000
   66 1.700 1.435  1.965 1.000 1.00000 1.700 1.000      4.477  23.000
   67 1.710 1.444  1.976 1.000 1.00000 1.710 1.000     10.444  23.000
   68 1.700 1.435  1.965 1.000 1.00000 1.700 1.000      3.907  23.000
   69 1.700 1.435  1.965 1.000 1.00000 1.700 1.000      4.678  23.000
   70 1.700 1.435  1.965 1.000 1.00000 1.700 1.000      3.923  23.000
   71 1.700 1.435  1.965 1.000 1.00000 1.700 1.000      4.596  23.000
   72 1.700 1.435  1.965 1.000 1.00000 1.700 1.000      4.915  23.000
   73 1.700 1.435  1.965 1.000 1.00000 1.700 1.000      4.720  23.000
   74 1.700 1.435  1.965 1.000 1.00000 1.700 1.000      4.678  23.000
   75 1.700 1.435  1.965 1.000 1.00000 1.700 1.000      4.166  23.000
   76 1.700 1.435  1.965 1.000 1.00000 1.700 1.000      5.588  23.000
   77 1.700 1.435  1.965 1.000 1.00000 1.700 1.000      4.272  23.000
   78 1.700 1.435  1.965 1.000 1.00000 1.700 1.000      3.923  23.000
   79 1.710 1.444  1.976 1.000 1.00000 1.710 1.000     12.176  23.000
   80 1.700 1.435  1.965 1.000 1.00000 1.700 1.000      4.699  23.000
   81 1.700 1.435  1.965 1.000 1.00000 1.700 1.000      5.167  23.000
   82 1.700 1.435  1.965 1.000 1.00000 1.700 1.000      4.254  23.000
   83 1.700 1.435  1.965 1.000 1.00000 1.700 1.000      4.049  23.000
   84 1.710 1.444  1.976 1.000 1.00000 1.710 1.000     10.566  23.000
   85 1.700 1.435  1.965 1.000 1.00000 1.700 1.000      5.311  23.000
   86 1.700 1.435  1.965 1.000 1.00000 1.700 1.000      4.382  23.000
   87 1.700 1.435  1.965 1.000 1.00000 1.700 1.000      4.049  23.000
   88 1.700 1.435  1.965 1.000 1.00000 1.700 1.000      3.907  23.000
   89 1.700 1.435  1.965 1.000 1.00000 1.700 1.000      4.382  23.000
   90 1.700 1.435  1.965 1.000 1.00000 1.700 1.000      4.536  23.000
   91 1.700 1.435  1.965 1.000 1.00000 1.700 1.000      4.183  23.000
   92 1.710 1.444  1.976 1.000 1.00000 1.710 1.000      7.535  23.000
   93 1.700 1.435  1.965 1.000 1.00000 1.700 1.000      3.863  23.000
   94 1.700 1.435  1.965 1.000 1.00000 1.700 1.000      4.517  23.000
   95 1.700 1.435  1.965 1.000 1.00000 1.700 1.000      4.439  23.000
   96 1.710 1.444  1.976 1.000 1.00000 1.710 1.000     10.444  23.000
   97 1.700 1.435  1.965 1.000 1.00000 1.700 1.000      4.183  23.000
   98 1.700 1.435  1.965 1.000 1.00000 1.700 1.000      4.115  23.000
   99 1.700 1.435  1.965 1.000 1.00000 1.700 1.000      4.201  23.000
  100 1.710 1.444  1.976 1.000 1.00000 1.710 1.000      7.684  23.000
  101 1.700 1.435  1.965 1.000 1.00000 1.700 1.000      4.183  23.000
  102 1.700 1.435  1.965 1.000 1.00000 1.700 1.000      4.098  23.000
  103 1.700 1.435  1.965 1.000 1.00000 1.700 1.000      5.460  23.000
  104 1.700 1.435  1.965 1.000 1.00000 1.700 1.000      6.335  23.000
  105 1.700 1.435  1.965 1.000 1.00000 1.700 1.000      4.272  23.000
  106 1.710 1.444  1.976 1.000 1.00000 1.710 1.000      8.649  23.000
  107 1.700 1.435  1.965 1.000 1.00000 1.700 1.000      4.065  23.000
  108 1.700 1.435  1.965 1.000 1.00000 1.700 1.000      4.805  23.000
  109 1.700 1.435  1.965 1.000 1.00000 1.700 1.000      3.892  23.000
  110 1.710 1.444  1.976 1.000 1.00000 1.710 1.000     12.315  23.000
  111 1.710 1.444  1.976 1.000 1.00000 1.710 1.000     20.556  23.000
  112 1.700 1.435  1.965 1.000 1.00000 1.700 1.000      4.254  23.000
  113 1.700 1.435  1.965 1.000 1.00000 1.700 1.000      4.166  23.000
  114 1.700 1.435  1.965 1.000 1.00000 1.700 1.000      5.143  23.000
  115 1.700 1.435  1.965 1.000 1.00000 1.700 1.000      6.667  23.000
  116 1.700 1.435  1.965 1.000 1.00000 1.700 1.000      4.308  23.000
  117 1.710 1.444  1.976 1.000 1.00000 1.710 1.000      8.856  23.000
  118 1.700 1.435  1.965 1.000 1.00000 1.700 1.000      4.617  23.000
  119 1.700 1.435  1.965 1.000 1.00000 1.700 1.000      4.536  23.000
  120 1.700 1.435  1.965 1.000 1.00000 1.700 1.000      4.959  23.000
  121 1.700 1.435  1.965 1.000 1.00000 1.700 1.000      4.982  23.000
  122 1.700 1.435  1.965 1.000 1.00000 1.700 1.000      4.762  23.000
  123 1.700 1.435  1.965 1.000 1.00000 1.700 1.000      4.098  23.000
  124 1.700 1.435  1.965 1.000 1.00000 1.700 1.000      4.762  23.000
  125 1.710 1.444  1.976 1.000 1.00000 1.710 1.000     10.484  23.000
  126 1.700 1.435  1.965 1.000 1.00000 1.700 1.000      4.033  23.000
  127 1.700 1.435  1.965 1.000 1.00000 1.700 1.000      6.394  23.000
  128 1.700 1.435  1.965 1.000 1.00000 1.700 1.000      5.096  23.000
  129 1.700 1.435  1.965 1.000 1.00000 1.700 1.000      4.308  23.000
  130 1.700 1.435  1.965 1.000 1.00000 1.700 1.000      5.935  23.000
  131 1.700 1.435  1.965 1.000 1.00000 1.700 1.000      4.363  23.000
  132 1.700 1.435  1.965 1.000 1.00000 1.700 1.000      4.678  23.000
  133 1.700 1.435  1.965 1.000 1.00000 1.700 1.000      4.477  23.000
  134 1.700 1.435  1.965 1.000 1.00000 1.700 1.000      4.065  23.000
  135 1.700 1.435  1.965 1.000 1.00000 1.700 1.000      4.254  23.000
  136 1.700 1.435  1.965 1.000 1.00000 1.700 1.000      5.027  23.000
  137 1.700 1.435  1.965 1.000 1.00000 1.700 1.000      3.953  23.000
  138 1.700 1.435  1.965 1.000 1.00000 1.700 1.000      7.081  23.000
  139 1.700 1.435  1.965 1.000 1.00000 1.700 1.000      3.953  23.000
  140 1.700 1.435  1.965 1.000 1.00000 1.700 1.000      4.033  23.000
  141 1.700 1.435  1.965 1.000 1.00000 1.700 1.000      5.536  23.000
  142 1.700 1.435  1.965 1.000 1.00000 1.700 1.000      4.517  23.000
  143 1.700 1.435  1.965 1.000 1.00000 1.700 1.000      6.514  23.000
  144 1.700 1.435  1.965 1.000 1.00000 1.700 1.000      4.784  23.000
  145 1.710 1.444  1.976 1.000 1.00000 1.710 1.000      7.868  23.000
  146 1.700 1.435  1.965 1.000 1.00000 1.700 1.000      4.033  23.000
  147 1.700 1.435  1.965 1.000 1.00000 1.700 1.000      5.719  23.000
  148 1.700 1.435  1.965 1.000 1.00000 1.700 1.000      4.762  23.000
  149 1.700 1.435  1.965 1.000 1.00000 1.700 1.000      4.098  23.000
  150 1.700 1.435  1.965 1.000 1.00000 1.700 1.000      4.420  23.000
  151 1.710 1.444  1.976 1.000 1.00000 1.710 1.000      9.849  23.000
  152 1.710 1.444  1.976 1.000 1.00000 1.710 1.000     14.075  23.000
  153 1.700 1.435  1.965 1.000 1.00000 1.700 1.000      7.179  23.000
  154 1.700 1.435  1.965 1.000 1.00000 1.700 1.000      5.772  23.000
  155 1.710 1.444  1.976 1.000 1.00000 1.710 1.000     12.930  23.000
  156 1.700 1.435  1.965 1.000 1.00000 1.700 1.000      4.065  23.000
  157 1.710 1.444  1.976 1.000 1.00000 1.710 1.000     12.786  23.000
  158 1.700 1.435  1.965 1.000 1.00000 1.700 1.000      3.923  23.000
  159 1.700 1.435  1.965 1.000 1.00000 1.700 1.000      4.308  23.000
  160 1.710 1.444  1.976 1.000 1.00000 1.710 1.000      9.069  23.000
  161 1.700 1.435  1.965 1.000 1.00000 1.700 1.000      5.238  23.000
  162 1.700 1.435  1.965 1.000 1.00000 1.700 1.000      6.047  23.000
  163 1.710 1.444  1.976 1.000 1.00000 1.710 1.000      7.594  23.000
  164 1.700 1.435  1.965 1.000 1.00000 1.700 1.000      4.149  23.000
  165 1.700 1.435  1.965 1.000 1.00000 1.700 1.000      3.892  23.000
  166 1.700 1.435  1.965 1.000 1.00000 1.700 1.000      6.047  23.000
  167 1.700 1.435  1.965 1.000 1.00000 1.700 1.000      4.497  23.000
  168 1.700 1.435  1.965 1.000 1.00000 1.700 1.000      4.892  23.000
  169 1.700 1.435  1.965 1.000 1.00000 1.700 1.000      4.762  23.000
  170 1.700 1.435  1.965 1.000 1.00000 1.700 1.000      4.149  23.000
  171 1.700 1.435  1.965 1.000 1.00000 1.700 1.000      4.363  23.000
  172 1.700 1.435  1.965 1.000 1.00000 1.700 1.000      4.762  23.000
  173 1.700 1.435  1.965 1.000 1.00000 1.700 1.000      5.311  23.000
  174 1.700 1.435  1.965 1.000 1.00000 1.700 1.000      4.345  23.000
  175 1.700 1.435  1.965 1.000 1.00000 1.700 1.000      3.863  23.000
  176 1.700 1.435  1.965 1.000 1.00000 1.700 1.000      5.991  23.000
  177 1.710 1.444  1.976 1.000 1.00000 1.710 1.000      9.069  23.000
  178 1.700 1.435  1.965 1.000 1.00000 1.700 1.000      4.082  23.000
  179 1.700 1.435  1.965 1.000 1.00000 1.700 1.000      5.027  23.000
  180 1.700 1.435  1.965 1.000 1.00000 1.700 1.000      3.938  23.000
  181 1.700 1.435  1.965 1.000 1.00000 1.700 1.000      4.201  23.000
  182 1.700 1.435  1.965 1.000 1.00000 1.700 1.000      6.729  23.000
  183 1.700 1.435  1.965 1.000 1.00000 1.700 1.000      4.082  23.000
  184 1.700 1.435  1.965 1.000 1.00000 1.700 1.000      4.596  23.000
  185 1.700 1.435  1.965 1.000 1.00000 1.700 1.000      4.536  23.000
  186 1.700 1.435  1.965 1.000 1.00000 1.700 1.000      4.784  23.000
  187 1.700 1.435  1.965 1.000 1.00000 1.700 1.000      3.892  23.000
  188 1.700 1.435  1.965 1.000 1.00000 1.700 1.000      4.065  23.000
  189 1.710 1.444  1.976 1.000 1.00000 1.710 1.000     13.820  23.000
  190 1.700 1.435  1.965 1.000 1.00000 1.700 1.000      4.959  23.000
  191 1.710 1.444  1.976 1.000 1.00000 1.710 1.000     10.814  23.000
  192 1.700 1.435  1.965 1.000 1.00000 1.700 1.000      4.201  23.000
  193 1.700 1.435  1.965 1.000 1.00000 1.700 1.000      4.345  23.000
  194 1.700 1.435  1.965 1.000 1.00000 1.700 1.000      3.969  23.000
  195 1.700 1.435  1.965 1.000 1.00000 1.700 1.000      3.985  23.000
  196 1.700 1.435  1.965 1.000 1.00000 1.700 1.000      4.149  23.000
  197 1.700 1.435  1.965 1.000 1.00000 1.700 1.000      4.254  23.000
  198 1.700 1.435  1.965 1.000 1.00000 1.700 1.000      5.004  23.000
  199 1.700 1.435  1.965 1.000 1.00000 1.700 1.000      4.033  23.000
  200 1.710 1.444  1.976 1.000 1.00000 1.710 1.000      8.997  23.000
  201 1.700 1.435  1.965 1.000 1.00000 1.700 1.000      6.575  23.000
  202 1.710 1.444  1.976 1.000 1.00000 1.710 1.000      8.380  23.000
  203 1.710 1.444  1.976 1.000 1.00000 1.710 1.000     15.238  23.000
  204 1.700 1.435  1.965 1.000 1.00000 1.710 1.000      7.447  23.000
  205 1.700 1.435  1.965 1.000 1.00000 1.700 1.000      4.065  23.000
  206 1.700 1.435  1.965 1.000 1.00000 1.700 1.000      4.497  23.000
  207 1.700 1.435  1.965 1.000 1.00000 1.700 1.000      4.115  23.000
  208 1.700 1.435  1.965 1.000 1.00000 1.700 1.000      3.938  23.000
  209 1.700 1.435  1.965 1.000 1.00000 1.700 1.000      4.290  23.000
  210 1.710 1.444  1.976 1.000 1.00000 1.710 1.000      7.837  23.000
  211 1.700 1.435  1.965 1.000 1.00000 1.700 1.000      4.001  23.000
  212 1.700 1.435  1.965 1.000 1.00000 1.700 1.000      4.049  23.000
  213 1.700 1.435  1.965 1.000 1.00000 1.700 1.000      4.149  23.000
  214 1.700 1.435  1.965 1.000 1.00000 1.700 1.000      5.335  23.000
  215 1.700 1.435  1.965 1.000 1.00000 1.700 1.000      3.907  23.000
  216 1.700 1.435  1.965 1.000 1.00000 1.700 1.000      5.120  23.000
  217 1.710 1.444  1.976 1.000 1.00000 1.710 1.000     11.326  23.000
  218 1.700 1.435  1.965 1.000 1.00000 1.700 1.000      4.363  23.000
  219 1.700 1.435  1.965 1.000 1.00000 1.700 1.000      4.033  23.000
  220 1.700 1.435  1.965 1.000 1.00000 1.700 1.000      4.536  23.000
  221 1.700 1.435  1.965 1.000 1.00000 1.700 1.000      4.345  23.000
  222 1.700 1.435  1.965 1.000 1.00000 1.700 1.000      4.033  23.000
  223 1.700 1.435  1.965 1.000 1.00000 1.700 1.000      4.033  23.000
  224 1.700 1.435  1.965 1.000 1.00000 1.700 1.000      4.345  23.000
  225 1.700 1.435  1.965 1.000 1.00000 1.700 1.000      3.938  23.000
  226 1.700 1.435  1.965 1.000 1.00000 1.700 1.000      4.254  23.000
  227 1.700 1.435  1.965 1.000 1.00000 1.700 1.000      5.666  23.000
  228 1.700 1.435  1.965 1.000 1.00000 1.700 1.000      4.183  23.000
  229 1.700 1.435  1.965 1.000 1.00000 1.700 1.000      4.132  23.000
  230 1.700 1.435  1.965 1.000 1.00000 1.700 1.000      4.326  23.000
  231 1.700 1.435  1.965 1.000 1.00000 1.700 1.000      4.762  23.000
  232 1.700 1.435  1.965 1.000 1.00000 1.700 1.000      4.149  23.000
  233 1.700 1.435  1.965 1.000 1.00000 1.700 1.000      5.096  23.000
  234 1.700 1.435  1.965 1.000 1.00000 1.700 1.000      4.363  23.000
  235 1.700 1.435  1.965 1.000 1.00000 1.700 1.000      4.937  23.000
  236 1.700 1.435  1.965 1.000 1.00000 1.700 1.000      6.729  23.000
  237 1.710 1.444  1.976 1.000 1.00000 1.710 1.000      9.811  23.000
  238 1.700 1.435  1.965 1.000 1.00000 1.700 1.000      3.985  23.000
  239 1.700 1.435  1.965 1.000 1.00000 1.700 1.000      4.115  23.000
  240 1.700 1.435  1.965 1.000 1.00000 1.700 1.000      6.276  23.000
  241 1.700 1.435  1.965 1.000 1.00000 1.700 1.000      4.001  23.000
  242 1.700 1.435  1.965 1.000 1.00000 1.700 1.000      4.183  23.000
  243 1.700 1.435  1.965 1.000 1.00000 1.700 1.000      6.606  23.000
  244 1.710 1.444  1.976 1.000 1.00000 1.710 1.000      9.470  23.000
  245 1.700 1.435  1.965 1.000 1.00000 1.700 1.000      4.345  23.000
  246 1.700 1.435  1.965 1.000 1.00000 1.700 1.000      4.363  23.000
  247 1.700 1.435  1.965 1.000 1.00000 1.700 1.000      4.420  23.000
  248 1.700 1.435  1.965 1.000 1.00000 1.700 1.000      4.183  23.000
  249 1.710 1.444  1.976 1.000 1.00000 1.710 1.000     13.419  23.000
  250 1.700 1.435  1.965 1.000 1.00000 1.700 1.000      3.907  23.000
  251 1.700 1.435  1.965 1.000 1.00000 1.700 1.000      4.982  23.000
  252 1.700 1.435  1.965 1.000 1.00000 1.700 1.000      4.326  23.000
  253 1.700 1.435  1.965 1.000 1.00000 1.700 1.000      4.149  23.000
  254 1.700 1.435  1.965 1.000 1.00000 1.700 1.000      4.326  23.000
  255 1.700 1.435  1.965 1.000 1.00000 1.700 1.000      4.033  23.000
  256 1.700 1.435  1.965 1.000 1.00000 1.700 1.000      4.308  23.000
  257 1.700 1.435  1.965 1.000 1.00000 1.700 1.000      4.345  23.000
  258 1.710 1.444  1.976 1.000 1.00000 1.710 1.000      8.997  23.000
  259 1.700 1.435  1.965 1.000 1.00000 1.700 1.000      3.969  23.000
  260 1.700 1.435  1.965 1.000 1.00000 1.700 1.000      4.477  23.000
  261 1.700 1.435  1.965 1.000 1.00000 1.700 1.000      5.004  23.000
  262 1.700 1.435  1.965 1.000 1.00000 1.700 1.000      4.001  23.000
  263 1.700 1.435  1.965 1.000 1.00000 1.700 1.000      4.517  23.000
  264 1.700 1.435  1.965 1.000 1.00000 1.700 1.000      3.953  23.000
  265 1.700 1.435  1.965 1.000 1.00000 1.700 1.000      4.720  23.000
  266 1.700 1.435  1.965 1.000 1.00000 1.700 1.000      4.959  23.000
  267 1.700 1.435  1.965 1.000 1.00000 1.700 1.000      7.081  23.000
  268 1.700 1.435  1.965 1.000 1.00000 1.700 1.000      5.050  23.000
  269 1.700 1.435  1.965 1.000 1.00000 1.700 1.000      4.272  23.000
  270 1.700 1.435  1.965 1.000 1.00000 1.700 1.000      3.985  23.000
  271 1.700 1.435  1.965 1.000 1.00000 1.700 1.000      4.870  23.000
  272 1.710 1.444  1.976 1.000 1.00000 1.710 1.000     10.242  23.000
  273 1.700 1.435  1.965 1.000 1.00000 1.700 1.000      4.033  23.000
  274 1.700 1.435  1.965 1.000 1.00000 1.700 1.000      4.477  23.000
  275 1.700 1.435  1.965 1.000 1.00000 1.700 1.000      4.065  23.000
  276 1.700 1.435  1.965 1.000 1.00000 1.700 1.000      4.016  23.000
  277 1.700 1.435  1.965 1.000 1.00000 1.700 1.000      4.049  23.000
  278 1.700 1.435  1.965 1.000 1.00000 1.700 1.000      3.907  23.000
  279 1.700 1.435  1.965 1.000 1.00000 1.700 1.000      4.115  23.000
  280 1.700 1.435  1.965 1.000 1.00000 1.700 1.000      4.272  23.000
  281 1.700 1.435  1.965 1.000 1.00000 1.700 1.000      4.115  23.000
  282 1.700 1.435  1.965 1.000 1.00000 1.700 1.000      4.001  23.000
  283 1.700 1.435  1.965 1.000 1.00000 1.700 1.000      4.617  23.000
  284 1.700 1.435  1.965 1.000 1.00000 1.700 1.000      4.201  23.000
  285 1.700 1.435  1.965 1.000 1.00000 1.700 1.000      5.460  23.000
  286 1.710 1.444  1.976 1.000 1.00000 1.710 1.000     11.767  23.000
  287 1.700 1.435  1.965 1.000 1.00000 1.700 1.000      4.805  23.000
  288 1.700 1.435  1.965 1.000 1.00000 1.700 1.000      4.115  23.000
  289 1.700 1.435  1.965 1.000 1.00000 1.700 1.000      4.741  23.000
  290 1.700 1.435  1.965 1.000 1.00000 1.700 1.000      3.953  23.000
  291 1.700 1.435  1.965 1.000 1.00000 1.700 1.000      4.699  23.000
  292 1.710 1.444  1.976 1.000 1.00000 1.710 1.000      7.868  23.000
  293 1.700 1.435  1.965 1.000 1.00000 1.700 1.000      6.887  23.000
  294 1.700 1.435  1.965 1.000 1.00000 1.700 1.000      4.254  23.000
  295 1.710 1.444  1.976 1.000 1.00000 1.710 1.000      7.654  23.000
  296 1.700 1.435  1.965 1.000 1.00000 1.700 1.000      4.049  23.000
  297 1.700 1.435  1.965 1.000 1.00000 1.700 1.000      4.001  23.000
  298 1.700 1.435  1.965 1.000 1.00000 1.700 1.000      4.678  23.000
  299 1.700 1.435  1.965 1.000 1.00000 1.700 1.000      4.272  23.000
  300 1.700 1.435  1.965 1.000 1.00000 1.700 1.000      4.678  23.000
  301 1.700 1.435  1.965 1.000 1.00000 1.700 1.000      4.149  23.000
  302 1.700 1.435  1.965 1.000 1.00000 1.700 1.000      4.166  23.000
  303 1.700 1.435  1.965 1.000 1.00000 1.700 1.000      4.308  23.000
  304 1.710 1.444  1.976 1.000 1.00000 1.710 1.000     16.069  23.000
  305 1.700 1.435  1.965 1.000 1.00000 1.700 1.000      4.001  23.000
  306 1.700 1.435  1.965 1.000 1.00000 1.700 1.000      5.666  23.000
  307 1.700 1.435  1.965 1.000 1.00000 1.700 1.000      4.762  23.000
  308 1.700 1.435  1.965 1.000 1.00000 1.700 1.000      6.103  23.000
  309 1.710 1.444  1.976 1.000 1.00000 1.710 1.000      8.314  23.000
  310 1.700 1.435  1.965 1.000 1.00000 1.700 1.000      6.824  23.000
  311 1.700 1.435  1.965 1.000 1.00000 1.700 1.000      4.915  23.000
  312 1.700 1.435  1.965 1.000 1.00000 1.700 1.000      4.576  23.000
  313 1.710 1.444  1.976 1.000 1.00000 1.710 1.000      8.856  23.000
  314 1.700 1.435  1.965 1.000 1.00000 1.700 1.000      5.096  23.000
  315 1.700 1.435  1.965 1.000 1.00000 1.700 1.000      4.016  23.000
  316 1.700 1.435  1.965 1.000 1.00000 1.700 1.000      4.132  23.000
  317 1.700 1.435  1.965 1.000 1.00000 1.700 1.000      3.969  23.000
  318 1.700 1.435  1.965 1.000 1.00000 1.700 1.000      5.511  23.000
  319 1.700 1.435  1.965 1.000 1.00000 1.700 1.000      4.290  23.000
  320 1.700 1.435  1.965 1.000 1.00000 1.700 1.000      4.439  23.000
  321 1.700 1.435  1.965 1.000 1.00000 1.700 1.000      4.982  23.000
  322 1.700 1.435  1.965 1.000 1.00000 1.700 1.000      4.401  23.000
  323 1.710 1.444  1.976 1.000 1.00000 1.710 1.000     27.349  23.000
  324 1.700 1.435  1.965 1.000 1.00000 1.700 1.000      5.096  23.000
  325 1.700 1.435  1.965 1.000 1.00000 1.700 1.000      4.556  23.000
  326 1.700 1.435  1.965 1.000 1.00000 1.700 1.000      3.953  23.000
  327 1.700 1.435  1.965 1.000 1.00000 1.700 1.000      5.360  23.000
  328 1.700 1.435  1.965 1.000 1.00000 1.700 1.000      5.666  23.000
  329 1.710 1.444  1.976 1.000 1.00000 1.710 1.000     12.039  23.000
  330 1.700 1.435  1.965 1.000 1.00000 1.700 1.000      4.536  23.000
  331 1.700 1.435  1.965 1.000 1.00000 1.700 1.000      7.081  23.000
  332 1.700 1.435  1.965 1.000 1.00000 1.700 1.000      4.183  23.000
  333 1.700 1.435  1.965 1.000 1.00000 1.700 1.000      4.805  23.000
  334 1.700 1.435  1.965 1.000 1.00000 1.700 1.000      3.985  23.000
  335 1.700 1.435  1.965 1.000 1.00000 1.700 1.000      3.923  23.000
  336 1.700 1.435  1.965 1.000 1.00000 1.700 1.000      3.923  23.000
  337 1.700 1.435  1.965 1.000 1.00000 1.700 1.000      4.596  23.000
  338 1.700 1.435  1.965 1.000 1.00000 1.700 1.000      6.306  23.000
  339 1.700 1.435  1.965 1.000 1.00000 1.700 1.000      6.983  23.000
  340 1.700 1.435  1.965 1.000 1.00000 1.700 1.000      4.049  23.000
  341 1.700 1.435  1.965 1.000 1.00000 1.700 1.000      4.959  23.000
  342 1.700 1.435  1.965 1.000 1.00000 1.700 1.000      6.824  23.000
  343 1.700 1.435  1.965 1.000 1.00000 1.700 1.000      6.514  23.000
  344 1.700 1.435  1.965 1.000 1.00000 1.700 1.000      4.098  23.000
  345 1.700 1.435  1.965 1.000 1.00000 1.700 1.000      4.033  23.000
  346 1.710 1.444  1.976 1.000 1.00000 1.710 1.000      7.961  23.000
  347 1.700 1.435  1.965 1.000 1.00000 1.700 1.000      6.824  23.000
  348 1.700 1.435  1.965 1.000 1.00000 1.700 1.000      3.923  23.000
  349 1.700 1.435  1.965 1.000 1.00000 1.700 1.000      4.115  23.000
  350 1.700 1.435  1.965 1.000 1.00000 1.700 1.000      4.290  23.000
  351 1.700 1.435  1.965 1.000 1.00000 1.700 1.000      4.065  23.000
  352 1.700 1.435  1.965 1.000 1.00000 1.700 1.000      6.855  23.000
  353 1.700 1.435  1.965 1.000 1.00000 1.700 1.000      5.410  23.000
  354 1.700 1.435  1.965 1.000 1.00000 1.700 1.000      4.849  23.000
  355 1.710 1.444  1.976 1.000 1.00000 1.710 1.000     13.075  23.000
  356 1.700 1.435  1.965 1.000 1.00000 1.700 1.000      4.477  23.000
  357 1.700 1.435  1.965 1.000 1.00000 1.700 1.000      4.016  23.000
  358 1.700 1.435  1.965 1.000 1.00000 1.700 1.000      4.982  23.000
  359 1.700 1.435  1.965 1.000 1.00000 1.700 1.000      6.887  23.000
  360 1.700 1.435  1.965 1.000 1.00000 1.700 1.000      4.183  23.000
  361 1.700 1.435  1.965 1.000 1.00000 1.700 1.000      4.870  23.000
  362 1.710 1.444  1.976 1.000 1.00000 1.710 1.000     10.856  23.000
  363 1.700 1.435  1.965 1.000 1.00000 1.700 1.000      4.982  23.000
  364 1.700 1.435  1.965 1.000 1.00000 1.700 1.000      4.458  23.000
  365 1.700 1.435  1.965 1.000 1.00000 1.700 1.000      4.420  23.000
  366 1.700 1.435  1.965 1.000 1.00000 1.700 1.000      4.098  23.000
  367 1.700 1.435  1.965 1.000 1.00000 1.700 1.000      4.326  23.000
  368 1.700 1.435  1.965 1.000 1.00000 1.700 1.000      5.799  23.000
  369 1.700 1.435  1.965 1.000 1.00000 1.700 1.000      4.345  23.000
  370 1.700 1.435  1.965 1.000 1.00000 1.700 1.000      4.098  23.000
  371 1.700 1.435  1.965 1.000 1.00000 1.700 1.000      4.149  23.000
  372 1.700 1.435  1.965 1.000 1.00000 1.700 1.000      4.115  23.000
  373 1.710 1.444  1.976 1.000 1.00000 1.710 1.000      7.535  23.000
  374 1.700 1.435  1.965 1.000 1.00000 1.700 1.000      4.401  23.000
  375 1.710 1.444  1.976 1.000 1.00000 1.710 1.000     11.545  23.000
  376 1.700 1.435  1.965 1.000 1.00000 1.700 1.000      6.132  23.000
  377 1.700 1.435  1.965 1.000 1.00000 1.700 1.000      4.290  23.000
  378 1.700 1.435  1.965 1.000 1.00000 1.700 1.000      4.166  23.000
  379 1.700 1.435  1.965 1.000 1.00000 1.710 1.000      7.476  23.000
  380 1.700 1.435  1.965 1.000 1.00000 1.700 1.000      4.033  23.000
  381 1.700 1.435  1.965 1.000 1.00000 1.700 1.000      4.201  23.000
  382 1.700 1.435  1.965 1.000 1.00000 1.700 1.000      4.637  23.000
  383 1.700 1.435  1.965 1.000 1.00000 1.700 1.000      4.658  23.000
  384 1.700 1.435  1.965 1.000 1.00000 1.700 1.000      4.363  23.000
  385 1.700 1.435  1.965 1.000 1.00000 1.700 1.000      4.115  23.000
  386 1.700 1.435  1.965 1.000 1.00000 1.700 1.000      4.497  23.000
  387 1.710 1.444  1.976 1.000 1.00000 1.710 1.000     16.069  23.000
  388 1.700 1.435  1.965 1.000 1.00000 1.700 1.000      5.050  23.000
  389 1.700 1.435  1.965 1.000 1.00000 1.700 1.000      4.596  23.000
  390 1.700 1.435  1.965 1.000 1.00000 1.700 1.000      4.699  23.000
  391 1.700 1.435  1.965 1.000 1.00000 1.700 1.000      5.991  23.000
  392 1.700 1.435  1.965 1.000 1.00000 1.700 1.000      4.201  23.000
  393 1.700 1.435  1.965 1.000 1.00000 1.700 1.000      4.617  23.000
  394 1.700 1.435  1.965 1.000 1.00000 1.700 1.000      7.346  23.000
  395 1.700 1.435  1.965 1.000 1.00000 1.700 1.000      4.827  23.000
  396 1.700 1.435  1.965 1.000 1.00000 1.700 1.000      5.588  23.000
  397 1.710 1.444  1.976 1.000 1.00000 1.710 1.000     12.039  23.000
  398 1.700 1.435  1.965 1.000 1.00000 1.700 1.000      4.098  23.000
  399 1.700 1.435  1.965 1.000 1.00000 1.700 1.000      4.658  23.000
  400 1.700 1.435  1.965 1.000 1.00000 1.700 1.000      3.877  23.000
  401 1.700 1.435  1.965 1.000 1.00000 1.700 1.000      5.536  23.000
  402 1.700 1.435  1.965 1.000 1.00000 1.700 1.000      5.908  23.000
  403 1.700 1.435  1.965 1.000 1.00000 1.700 1.000      4.827  23.000
  404 1.710 1.444  1.976 1.000 1.00000 1.710 1.000     13.370  23.000
  405 1.700 1.435  1.965 1.000 1.00000 1.700 1.000      3.969  23.000
  406 1.710 1.444  1.976 1.000 1.00000 1.710 1.000      7.992  23.000
  407 1.700 1.435  1.965 1.000 1.00000 1.700 1.000      7.113  23.000
  408 1.700 1.435  1.965 1.000 1.00000 1.700 1.000      7.179  23.000
  409 1.700 1.435  1.965 1.000 1.00000 1.700 1.000      4.363  23.000
  410 1.710 1.444  1.976 1.000 1.00000 1.710 1.000     12.315  23.000
  411 1.700 1.435  1.965 1.000 1.00000 1.700 1.000      4.658  23.000
  412 1.700 1.435  1.965 1.000 1.00000 1.700 1.000      3.907  23.000
  413 1.710 1.444  1.976 1.000 1.00000 1.710 1.000      9.396  23.000
  414 1.700 1.435  1.965 1.000 1.00000 1.700 1.000      4.401  23.000
  415 1.700 1.435  1.965 1.000 1.00000 1.700 1.000      4.201  23.000
  416 1.700 1.435  1.965 1.000 1.00000 1.700 1.000      4.458  23.000
  417 1.700 1.435  1.965 1.000 1.00000 1.700 1.000      4.016  23.000
  418 1.700 1.435  1.965 1.000 1.00000 1.700 1.000      4.016  23.000
  419 1.700 1.435  1.965 1.000 1.00000 1.700 1.000      4.497  23.000
  420 1.700 1.435  1.965 1.000 1.00000 1.700 1.000      5.799  23.000
  421 1.700 1.435  1.965 1.000 1.00000 1.700 1.000      4.458  23.000
  422 1.700 1.435  1.965 1.000 1.00000 1.700 1.000      6.824  23.000
  423 1.710 1.444  1.976 1.000 1.00000 1.710 1.000     12.930  23.000
  424 1.700 1.435  1.965 1.000 1.00000 1.700 1.000      7.346  23.000
  425 1.700 1.435  1.965 1.000 1.00000 1.700 1.000      5.640  23.000
  426 1.700 1.435  1.965 1.000 1.00000 1.700 1.000      7.179  23.000
  427 1.700 1.435  1.965 1.000 1.00000 1.700 1.000      4.870  23.000
  428 1.700 1.435  1.965 1.000 1.00000 1.700 1.000      4.477  23.000
  429 1.700 1.435  1.965 1.000 1.00000 1.700 1.000      4.218  23.000
  430 1.700 1.435  1.965 1.000 1.00000 1.700 1.000      4.033  23.000
  431 1.700 1.435  1.965 1.000 1.00000 1.700 1.000      4.596  23.000
  432 1.700 1.435  1.965 1.000 1.00000 1.700 1.000      6.103  23.000
  433 1.700 1.435  1.965 1.000 1.00000 1.700 1.000      4.517  23.000
  434 1.700 1.435  1.965 1.000 1.00000 1.700 1.000      4.132  23.000
  435 1.710 1.444  1.976 1.000 1.00000 1.710 1.000     11.948  23.000
  436 1.700 1.435  1.965 1.000 1.00000 1.700 1.000      3.923  23.000
  437 1.700 1.435  1.965 1.000 1.00000 1.700 1.000      4.637  23.000
  438 1.700 1.435  1.965 1.000 1.00000 1.700 1.000      5.238  23.000
  439 1.700 1.435  1.965 1.000 1.00000 1.700 1.000      4.720  23.000
  440 1.700 1.435  1.965 1.000 1.00000 1.700 1.000      4.382  23.000
  441 1.700 1.435  1.965 1.000 1.00000 1.700 1.000      4.183  23.000
  442 1.710 1.444  1.976 1.000 1.00000 1.710 1.000      9.359  23.000
  443 1.710 1.444  1.976 1.000 1.00000 1.710 1.000     13.820  23.000
  444 1.700 1.435  1.965 1.000 1.00000 1.700 1.000      7.212  23.000
  445 1.700 1.435  1.965 1.000 1.00000 1.700 1.000      4.254  23.000
  446 1.700 1.435  1.965 1.000 1.00000 1.700 1.000      4.439  23.000
  447 1.700 1.435  1.965 1.000 1.00000 1.700 1.000      3.923  23.000
  448 1.710 1.444  1.976 1.000 1.00000 1.710 1.000     11.812  23.000
  449 1.700 1.435  1.965 1.000 1.00000 1.700 1.000      7.246  23.000
  450 1.700 1.435  1.965 1.000 1.00000 1.700 1.000      4.982  23.000
  451 1.710 1.444  1.976 1.000 1.00000 1.710 1.000     11.589  23.000
  452 1.710 1.444  1.976 1.000 1.00000 1.710 1.000     12.361  23.000
  453 1.700 1.435  1.965 1.000 1.00000 1.700 1.000      4.082  23.000
  454 1.700 1.435  1.965 1.000 1.00000 1.700 1.000      3.969  23.000
  455 1.700 1.435  1.965 1.000 1.00000 1.700 1.000      4.183  23.000
  456 1.710 1.444  1.976 1.000 1.00000 1.710 1.000     11.196  23.000
  457 1.700 1.435  1.965 1.000 1.00000 1.700 1.000      6.019  23.000
  458 1.700 1.435  1.965 1.000 1.00000 1.700 1.000      3.863  23.000
  459 1.700 1.435  1.965 1.000 1.00000 1.700 1.000      4.477  23.000
  460 1.710 1.444  1.976 1.000 1.00000 1.710 1.000     13.222  23.000
  461 1.700 1.435  1.965 1.000 1.00000 1.700 1.000      5.536  23.000
  462 1.710 1.444  1.976 1.000 1.00000 1.710 1.000      7.837  23.000
  463 1.710 1.444  1.976 1.000 1.00000 1.710 1.000      8.615  23.000
  464 1.700 1.435  1.965 1.000 1.00000 1.700 1.000      4.477  23.000
  465 1.710 1.444  1.976 1.000 1.00000 1.710 1.000     10.044  23.000
  466 1.700 1.435  1.965 1.000 1.00000 1.700 1.000      4.218  23.000
  467 1.700 1.435  1.965 1.000 1.00000 1.700 1.000      3.923  23.000
  468 1.700 1.435  1.965 1.000 1.00000 1.700 1.000      5.666  23.000
  469 1.700 1.435  1.965 1.000 1.00000 1.700 1.000      5.799  23.000
  470 1.700 1.435  1.965 1.000 1.00000 1.700 1.000      4.218  23.000
  471 1.700 1.435  1.965 1.000 1.00000 1.700 1.000      4.183  23.000
  472 1.700 1.435  1.965 1.000 1.00000 1.700 1.000      3.877  23.000
  473 1.700 1.435  1.965 1.000 1.00000 1.700 1.000      4.033  23.000
  474 1.700 1.435  1.965 1.000 1.00000 1.700 1.000      4.082  23.000
  475 1.700 1.435  1.965 1.000 1.00000 1.700 1.000      4.049  23.000
  476 1.700 1.435  1.965 1.000 1.00000 1.700 1.000      3.907  23.000
  477 1.700 1.435  1.965 1.000 1.00000 1.700 1.000      7.380  23.000
  478 1.700 1.435  1.965 1.000 1.00000 1.700 1.000      4.254  23.000
  479 1.700 1.435  1.965 1.000 1.00000 1.700 1.000      3.953  23.000
  480 1.710 1.444  1.976 1.000 1.00000 1.710 1.000     10.814  23.000
  481 1.700 1.435  1.965 1.000 1.00000 1.700 1.000      4.382  23.000
  482 1.710 1.444  1.976 1.000 1.00000 1.710 1.000      7.992  23.000
  483 1.710 1.444  1.976 1.000 1.00000 1.710 1.000     12.176  23.000
  484 1.700 1.435  1.965 1.000 1.00000 1.700 1.000      3.938  23.000
  485 1.700 1.435  1.965 1.000 1.00000 1.700 1.000      4.401  23.000
  486 1.700 1.435  1.965 1.000 1.00000 1.700 1.000      4.762  23.000
  487 1.700 1.435  1.965 1.000 1.00000 1.700 1.000      4.326  23.000
  488 1.700 1.435  1.965 1.000 1.00000 1.700 1.000      3.985  23.000
  489 1.700 1.435  1.965 1.000 1.00000 1.700 1.000      4.290  23.000
  490 1.700 1.435  1.965 1.000 1.00000 1.700 1.000      4.272  23.000
  491 1.700 1.435  1.965 1.000 1.00000 1.700 1.000      4.617  23.000
  492 1.700 1.435  1.965 1.000 1.00000 1.700 1.000      4.033  23.000
  493 1.700 1.435  1.965 1.000 1.00000 1.700 1.000      4.326  23.000
  494 1.700 1.435  1.965 1.000 1.00000 1.700 1.000      4.218  23.000
  495 1.700 1.435  1.965 1.000 1.00000 1.700 1.000      3.938  23.000
  496 1.700 1.435  1.965 1.000 1.00000 1.700 1.000      4.183  23.000
  497 1.700 1.435  1.965 1.000 1.00000 1.700 1.000      4.517  23.000
  498 1.700 1.435  1.965 1.000 1.00000 1.700 1.000      3.892  23.000
  499 1.700 1.435  1.965 1.000 1.00000 1.700 1.000      4.617  23.000
  500 1.700 1.435  1.965 1.000 1.00000 1.700 1.000      5.588  23.000
  501 1.700 1.435  1.965 1.000 1.00000 1.700 1.000      6.047  23.000
  502 1.710 1.444  1.976 1.000 1.00000 1.710 1.000      9.658  23.000
  503 1.700 1.435  1.965 1.000 1.00000 1.700 1.000      6.276  23.000
  504 1.700 1.435  1.965 1.000 1.00000 1.700 1.000      4.218  23.000
  505 1.700 1.435  1.965 1.000 1.00000 1.700 1.000      6.792  23.000
  506 1.700 1.435  1.965 1.000 1.00000 1.700 1.000      4.132  23.000
  507 1.700 1.435  1.965 1.000 1.00000 1.700 1.000      4.401  23.000
  508 1.710 1.444  1.976 1.000 1.00000 1.710 1.000      7.930  23.000
  509 1.700 1.435  1.965 1.000 1.00000 1.700 1.000      6.103  23.000
  510 1.700 1.435  1.965 1.000 1.00000 1.700 1.000      4.254  23.000
  511 1.700 1.435  1.965 1.000 1.00000 1.700 1.000      3.923  23.000
  512 1.700 1.435  1.965 1.000 1.00000 1.700 1.000      7.279  23.000
  513 1.700 1.435  1.965 1.000 1.00000 1.700 1.000      5.335  23.000
  514 1.700 1.435  1.965 1.000 1.00000 1.700 1.000      4.477  23.000
  515 1.700 1.435  1.965 1.000 1.00000 1.700 1.000      4.308  23.000
  516 1.700 1.435  1.965 1.000 1.00000 1.700 1.000      4.218  23.000
  517 1.700 1.435  1.965 1.000 1.00000 1.700 1.000      4.637  23.000
  518 1.700 1.435  1.965 1.000 1.00000 1.700 1.000      3.953  23.000
  519 1.700 1.435  1.965 1.000 1.00000 1.700 1.000      4.166  23.000
  520 1.700 1.435  1.965 1.000 1.00000 1.700 1.000      4.115  23.000
  521 1.700 1.435  1.965 1.000 1.00000 1.700 1.000      5.562  23.000
  522 1.700 1.435  1.965 1.000 1.00000 1.700 1.000      4.201  23.000
  523 1.710 1.444  1.976 1.000 1.00000 1.710 1.000     12.549  23.000
  524 1.700 1.435  1.965 1.000 1.00000 1.700 1.000      4.218  23.000
  525 1.700 1.435  1.965 1.000 1.00000 1.700 1.000      4.236  23.000
  526 1.700 1.435  1.965 1.000 1.00000 1.700 1.000      4.166  23.000
  527 1.700 1.435  1.965 1.000 1.00000 1.700 1.000      4.115  23.000
  528 1.700 1.435  1.965 1.000 1.00000 1.700 1.000      6.792  23.000
  529 1.700 1.435  1.965 1.000 1.00000 1.700 1.000      5.027  23.000
  530 1.700 1.435  1.965 1.000 1.00000 1.700 1.000      4.049  23.000
  531 1.700 1.435  1.965 1.000 1.00000 1.700 1.000      5.050  23.000
  532 1.700 1.435  1.965 1.000 1.00000 1.700 1.000      4.272  23.000
  533 1.700 1.435  1.965 1.000 1.00000 1.700 1.000      4.326  23.000
  534 1.700 1.435  1.965 1.000 1.00000 1.700 1.000      5.190  23.000
  535 1.710 1.444  1.976 1.000 1.00000 1.710 1.000      8.822  23.000
  536 1.700 1.435  1.965 1.000 1.00000 1.700 1.000      4.254  23.000
  537 1.700 1.435  1.965 1.000 1.00000 1.700 1.000      4.326  23.000
  538 1.700 1.435  1.965 1.000 1.00000 1.700 1.000      4.016  23.000
  539 1.700 1.435  1.965 1.000 1.00000 1.700 1.000      4.326  23.000
  540 1.700 1.435  1.965 1.000 1.00000 1.700 1.000      4.658  23.000
  541 1.700 1.435  1.965 1.000 1.00000 1.700 1.000      4.458  23.000
  542 1.700 1.435  1.965 1.000 1.00000 1.700 1.000      5.536  23.000
  543 1.700 1.435  1.965 1.000 1.00000 1.700 1.000      5.143  23.000
  544 1.700 1.435  1.965 1.000 1.00000 1.700 1.000      6.545  23.000
  545 1.710 1.444  1.976 1.000 1.00000 1.710 1.000     11.068  23.000
  546 1.700 1.435  1.965 1.000 1.00000 1.700 1.000      4.517  23.000
  547 1.700 1.435  1.965 1.000 1.00000 1.700 1.000      3.923  23.000
  548 1.700 1.435  1.965 1.000 1.00000 1.700 1.000      4.762  23.000
  549 1.700 1.435  1.965 1.000 1.00000 1.700 1.000      4.065  23.000
  550 1.710 1.444  1.976 1.000 1.00000 1.710 1.000      7.565  23.000
  551 1.710 1.444  1.976 1.000 1.00000 1.710 1.000     12.834  23.000
  552 1.700 1.435  1.965 1.000 1.00000 1.700 1.000      4.617  23.000
  553 1.700 1.435  1.965 1.000 1.00000 1.700 1.000      4.420  23.000
  554 1.700 1.435  1.965 1.000 1.00000 1.700 1.000      4.115  23.000
  555 1.700 1.435  1.965 1.000 1.00000 1.700 1.000      4.805  23.000
  556 1.700 1.435  1.965 1.000 1.00000 1.700 1.000      3.877  23.000
  557 1.700 1.435  1.965 1.000 1.00000 1.700 1.000      4.678  23.000
  558 1.700 1.435  1.965 1.000 1.00000 1.700 1.000      4.363  23.000
  559 1.700 1.435  1.965 1.000 1.00000 1.700 1.000      4.699  23.000
  560 1.700 1.435  1.965 1.000 1.00000 1.700 1.000      4.762  23.000
  561 1.700 1.435  1.965 1.000 1.00000 1.700 1.000      4.720  23.000
  562 1.700 1.435  1.965 1.000 1.00000 1.700 1.000      4.098  23.000
  563 1.700 1.435  1.965 1.000 1.00000 1.700 1.000      4.001  23.000
  564 1.700 1.435  1.965 1.000 1.00000 1.700 1.000      5.435  23.000
  565 1.700 1.435  1.965 1.000 1.00000 1.700 1.000      4.497  23.000
  566 1.710 1.444  1.976 1.000 1.00000 1.710 1.000      8.024  23.000
  567 1.700 1.435  1.965 1.000 1.00000 1.700 1.000      4.345  23.000
  568 1.700 1.435  1.965 1.000 1.00000 1.700 1.000      4.290  23.000
  569 1.700 1.435  1.965 1.000 1.00000 1.700 1.000      4.033  23.000
  570 1.700 1.435  1.965 1.000 1.00000 1.700 1.000      6.189  23.000
  571 1.710 1.444  1.976 1.000 1.00000 1.710 1.000     13.419  23.000
  572 1.700 1.435  1.965 1.000 1.00000 1.700 1.000      4.915  23.000
  573 1.700 1.435  1.965 1.000 1.00000 1.700 1.000      3.985  23.000
  574 1.710 1.444  1.976 1.000 1.00000 1.710 1.000      7.714  23.000
  575 1.700 1.435  1.965 1.000 1.00000 1.700 1.000      4.098  23.000
  576 1.700 1.435  1.965 1.000 1.00000 1.700 1.000      4.183  23.000
  577 1.700 1.435  1.965 1.000 1.00000 1.700 1.000      4.236  23.000
  578 1.710 1.444  1.976 1.000 1.00000 1.710 1.000      8.413  23.000
  579 1.700 1.435  1.965 1.000 1.00000 1.700 1.000      4.741  23.000
  580 1.700 1.435  1.965 1.000 1.00000 1.700 1.000      4.098  23.000
  581 1.710 1.444  1.976 1.000 1.00000 1.710 1.000      7.899  23.000
  582 1.700 1.435  1.965 1.000 1.00000 1.700 1.000      4.517  23.000
  583 1.710 1.444  1.976 1.000 1.00000 1.710 1.000      7.837  23.000
  584 1.700 1.435  1.965 1.000 1.00000 1.700 1.000      4.049  23.000
  585 1.700 1.435  1.965 1.000 1.00000 1.700 1.000      5.335  23.000
  586 1.700 1.435  1.965 1.000 1.00000 1.700 1.000      4.065  23.000
  587 1.700 1.435  1.965 1.000 1.00000 1.700 1.000      5.666  23.000
  588 1.710 1.444  1.976 1.000 1.00000 1.710 1.000      8.347  23.000
  589 1.700 1.435  1.965 1.000 1.00000 1.700 1.000      4.699  23.000
  590 1.710 1.444  1.976 1.000 1.00000 1.710 1.000     10.005  23.000
  591 1.700 1.435  1.965 1.000 1.00000 1.700 1.000      5.692  23.000
  592 1.700 1.435  1.965 1.000 1.00000 1.700 1.000      5.908  23.000
  593 1.700 1.435  1.965 1.000 1.00000 1.700 1.000      5.096  23.000
  594 1.700 1.435  1.965 1.000 1.00000 1.700 1.000      3.907  23.000
  595 1.700 1.435  1.965 1.000 1.00000 1.700 1.000      4.272  23.000
  596 1.700 1.435  1.965 1.000 1.00000 1.700 1.000      4.497  23.000
  597 1.700 1.435  1.965 1.000 1.00000 1.700 1.000      4.236  23.000
  598 1.700 1.435  1.965 1.000 1.00000 1.700 1.000      4.517  23.000
  599 1.700 1.435  1.965 1.000 1.00000 1.700 1.000      3.923  23.000
  600 1.700 1.435  1.965 1.000 1.00000 1.700 1.000      4.420  23.000
  601 1.700 1.435  1.965 1.000 1.00000 1.700 1.000      7.146  23.000
  602 1.700 1.435  1.965 1.000 1.00000 1.700 1.000      4.065  23.000
  603 1.700 1.435  1.965 1.000 1.00000 1.700 1.000      4.254  23.000
  604 1.700 1.435  1.965 1.000 1.00000 1.700 1.000      4.401  23.000
  605 1.700 1.435  1.965 1.000 1.00000 1.700 1.000      4.016  23.000
  606 1.700 1.435  1.965 1.000 1.00000 1.700 1.000      4.065  23.000
  607 1.700 1.435  1.965 1.000 1.00000 1.700 1.000      4.049  23.000
  608 1.700 1.435  1.965 1.000 1.00000 1.700 1.000      4.439  23.000
  609 1.700 1.435  1.965 1.000 1.00000 1.700 1.000      4.439  23.000
  610 1.700 1.435  1.965 1.000 1.00000 1.700 1.000      4.016  23.000
  611 1.700 1.435  1.965 1.000 1.00000 1.700 1.000      4.033  23.000
  612 1.700 1.435  1.965 1.000 1.00000 1.700 1.000      5.562  23.000
  613 1.700 1.435  1.965 1.000 1.00000 1.700 1.000      4.596  23.000
  614 1.700 1.435  1.965 1.000 1.00000 1.700 1.000      4.536  23.000
  615 1.710 1.444  1.976 1.000 1.00000 1.710 1.000     14.281  23.000
  616 1.700 1.435  1.965 1.000 1.00000 1.700 1.000      4.254  23.000
  617 1.700 1.435  1.965 1.000 1.00000 1.700 1.000      4.536  23.000
  618 1.700 1.435  1.965 1.000 1.00000 1.700 1.000      5.190  23.000
  619 1.700 1.435  1.965 1.000 1.00000 1.700 1.000      4.458  23.000
  620 1.700 1.435  1.965 1.000 1.00000 1.700 1.000      4.098  23.000
  621 1.700 1.435  1.965 1.000 1.00000 1.700 1.000      3.907  23.000
  622 1.710 1.444  1.976 1.000 1.00000 1.710 1.000      8.927  23.000
  623 1.700 1.435  1.965 1.000 1.00000 1.700 1.000      4.272  23.000
  624 1.700 1.435  1.965 1.000 1.00000 1.700 1.000      3.923  23.000
  625 1.700 1.435  1.965 1.000 1.00000 1.700 1.000      5.562  23.000
  626 1.700 1.435  1.965 1.000 1.00000 1.700 1.000      6.247  23.000
  627 1.710 1.444  1.976 1.000 1.00000 1.710 1.000     13.922  23.000
  628 1.700 1.435  1.965 1.000 1.00000 1.700 1.000      4.049  23.000
  629 1.710 1.444  1.976 1.000 1.00000 1.710 1.000      9.396  23.000
  630 1.700 1.435  1.965 1.000 1.00000 1.700 1.000      7.414  23.000
  631 1.700 1.435  1.965 1.000 1.00000 1.700 1.000      5.614  23.000
  632 1.700 1.435  1.965 1.000 1.00000 1.700 1.000      4.183  23.000
  633 1.710 1.444  1.976 1.000 1.00000 1.710 1.000      8.718  23.000
  634 1.700 1.435  1.965 1.000 1.00000 1.700 1.000      6.729  23.000
  635 1.700 1.435  1.965 1.000 1.00000 1.700 1.000      4.762  23.000
  636 1.700 1.435  1.965 1.000 1.00000 1.700 1.000      4.016  23.000
  637 1.700 1.435  1.965 1.000 1.00000 1.700 1.000      5.963  23.000
  638 1.700 1.435  1.965 1.000 1.00000 1.700 1.000      4.345  23.000
  639 1.700 1.435  1.965 1.000 1.00000 1.700 1.000      5.167  23.000
  640 1.700 1.435  1.965 1.000 1.00000 1.700 1.000      5.485  23.000
  641 1.700 1.435  1.965 1.000 1.00000 1.700 1.000      4.741  23.000
  642 1.700 1.435  1.965 1.000 1.00000 1.700 1.000      3.953  23.000
  643 1.700 1.435  1.965 1.000 1.00000 1.700 1.000      4.049  23.000
  644 1.700 1.435  1.965 1.000 1.00000 1.700 1.000      3.877  23.000
  645 1.700 1.435  1.965 1.000 1.00000 1.700 1.000      7.081  23.000
  646 1.700 1.435  1.965 1.000 1.00000 1.700 1.000      5.287  23.000
  647 1.700 1.435  1.965 1.000 1.00000 1.700 1.000      3.892  23.000
  648 1.700 1.435  1.965 1.000 1.00000 1.700 1.000      4.556  23.000
  649 1.700 1.435  1.965 1.000 1.00000 1.700 1.000      4.401  23.000
  650 1.710 1.444  1.976 1.000 1.00000 1.710 1.000      7.535  23.000
  651 1.700 1.435  1.965 1.000 1.00000 1.700 1.000      5.799  23.000
  652 1.700 1.435  1.965 1.000 1.00000 1.700 1.000      4.001  23.000
  653 1.700 1.435  1.965 1.000 1.00000 1.700 1.000      4.720  23.000
  654 1.700 1.435  1.965 1.000 1.00000 1.700 1.000      4.033  23.000
  655 1.700 1.435  1.965 1.000 1.00000 1.700 1.000      4.236  23.000
  656 1.700 1.435  1.965 1.000 1.00000 1.700 1.000      4.049  23.000
  657 1.700 1.435  1.965 1.000 1.00000 1.700 1.000      3.923  23.000
  658 1.700 1.435  1.965 1.000 1.00000 1.700 1.000      4.345  23.000
  659 1.700 1.435  1.965 1.000 1.00000 1.700 1.000      3.877  23.000
  660 1.700 1.435  1.965 1.000 1.00000 1.700 1.000      5.410  23.000
  661 1.710 1.444  1.976 1.000 1.00000 1.710 1.000      9.773  23.000
  662 1.700 1.435  1.965 1.000 1.00000 1.700 1.000      4.420  23.000
  663 1.700 1.435  1.965 1.000 1.00000 1.700 1.000      4.290  23.000
  664 1.700 1.435  1.965 1.000 1.00000 1.700 1.000      5.027  23.000
  665 1.700 1.435  1.965 1.000 1.00000 1.700 1.000      4.183  23.000
  666 1.700 1.435  1.965 1.000 1.00000 1.700 1.000      4.183  23.000
  667 1.700 1.435  1.965 1.000 1.00000 1.700 1.000      3.892  23.000
  668 1.700 1.435  1.965 1.000 1.00000 1.700 1.000      4.870  23.000
  669 1.700 1.435  1.965 1.000 1.00000 1.700 1.000      4.805  23.000
  670 1.700 1.435  1.965 1.000 1.00000 1.700 1.000      6.047  23.000
  671 1.700 1.435  1.965 1.000 1.00000 1.700 1.000      4.870  23.000
  672 1.700 1.435  1.965 1.000 1.00000 1.700 1.000      4.556  23.000
  673 1.700 1.435  1.965 1.000 1.00000 1.700 1.000      6.575  23.000
  674 1.700 1.435  1.965 1.000 1.00000 1.700 1.000      4.805  23.000
  675 1.700 1.435  1.965 1.000 1.00000 1.700 1.000      6.075  23.000
  676 1.700 1.435  1.965 1.000 1.00000 1.700 1.000      4.132  23.000
  677 1.700 1.435  1.965 1.000 1.00000 1.700 1.000      4.937  23.000
  678 1.700 1.435  1.965 1.000 1.00000 1.700 1.000      4.033  23.000
  679 1.700 1.435  1.965 1.000 1.00000 1.700 1.000      5.143  23.000
  680 1.700 1.435  1.965 1.000 1.00000 1.700 1.000      4.001  23.000
  681 1.700 1.435  1.965 1.000 1.00000 1.700 1.000      4.149  23.000
  682 1.700 1.435  1.965 1.000 1.00000 1.700 1.000      4.458  23.000
  683 1.700 1.435  1.965 1.000 1.00000 1.700 1.000      4.892  23.000
  684 1.700 1.435  1.965 1.000 1.00000 1.700 1.000      4.699  23.000
  685 1.700 1.435  1.965 1.000 1.00000 1.700 1.000      5.536  23.000
  686 1.700 1.435  1.965 1.000 1.00000 1.700 1.000      5.485  23.000
  687 1.710 1.444  1.976 1.000 1.00000 1.710 1.000     18.374  23.000
  688 1.700 1.435  1.965 1.000 1.00000 1.700 1.000      5.908  23.000
  689 1.700 1.435  1.965 1.000 1.00000 1.700 1.000      4.576  23.000
  690 1.700 1.435  1.965 1.000 1.00000 1.700 1.000      4.326  23.000
  691 1.710 1.444  1.976 1.000 1.00000 1.710 1.000     14.333  23.000
  692 1.700 1.435  1.965 1.000 1.00000 1.700 1.000      4.420  23.000
  693 1.700 1.435  1.965 1.000 1.00000 1.700 1.000      4.115  23.000
  694 1.700 1.435  1.965 1.000 1.00000 1.700 1.000      6.951  23.000
  695 1.700 1.435  1.965 1.000 1.00000 1.700 1.000      4.576  23.000
  696 1.710 1.444  1.976 1.000 1.00000 1.710 1.000      7.654  23.000
  697 1.700 1.435  1.965 1.000 1.00000 1.700 1.000      5.311  23.000
  698 1.700 1.435  1.965 1.000 1.00000 1.700 1.000      4.345  23.000
  699 1.700 1.435  1.965 1.000 1.00000 1.700 1.000      4.345  23.000
  700 1.700 1.435  1.965 1.000 1.00000 1.700 1.000      3.953  23.000
  701 1.700 1.435  1.965 1.000 1.00000 1.700 1.000      5.004  23.000
  702 1.710 1.444  1.976 1.000 1.00000 1.710 1.000      9.583  23.000
  703 1.700 1.435  1.965 1.000 1.00000 1.700 1.000      3.907  23.000
  704 1.700 1.435  1.965 1.000 1.00000 1.700 1.000      3.985  23.000
  705 1.700 1.435  1.965 1.000 1.00000 1.700 1.000      4.959  23.000
  706 1.710 1.444  1.976 1.000 1.00000 1.710 1.000     13.669  23.000
  707 1.700 1.435  1.965 1.000 1.00000 1.700 1.000      4.805  23.000
  708 1.700 1.435  1.965 1.000 1.00000 1.700 1.000      4.272  23.000
  709 1.700 1.435  1.965 1.000 1.00000 1.700 1.000      4.098  23.000
  710 1.700 1.435  1.965 1.000 1.00000 1.700 1.000      5.853  23.000
  711 1.700 1.435  1.965 1.000 1.00000 1.700 1.000      4.784  23.000
  712 1.710 1.444  1.976 1.000 1.00000 1.710 1.000      8.281  23.000
  713 1.700 1.435  1.965 1.000 1.00000 1.700 1.000      4.082  23.000
  714 1.700 1.435  1.965 1.000 1.00000 1.700 1.000      3.985  23.000
  715 1.700 1.435  1.965 1.000 1.00000 1.700 1.000      4.326  23.000
  716 1.700 1.435  1.965 1.000 1.00000 1.700 1.000      4.658  23.000
  717 1.700 1.435  1.965 1.000 1.00000 1.700 1.000      4.805  23.000
  718 1.700 1.435  1.965 1.000 1.00000 1.700 1.000      4.218  23.000
  719 1.700 1.435  1.965 1.000 1.00000 1.700 1.000      4.699  23.000
  720 1.700 1.435  1.965 1.000 1.00000 1.700 1.000      5.120  23.000
  721 1.700 1.435  1.965 1.000 1.00000 1.710 1.000      7.447  23.000
  722 1.700 1.435  1.965 1.000 1.00000 1.700 1.000      4.201  23.000
  723 1.700 1.435  1.965 1.000 1.00000 1.700 1.000      4.401  23.000
  724 1.700 1.435  1.965 1.000 1.00000 1.700 1.000      4.420  23.000
  725 1.700 1.435  1.965 1.000 1.00000 1.700 1.000      4.576  23.000
  726 1.700 1.435  1.965 1.000 1.00000 1.700 1.000      4.115  23.000
  727 1.710 1.444  1.976 1.000 1.00000 1.710 1.000     13.769  23.000
  728 1.700 1.435  1.965 1.000 1.00000 1.700 1.000      6.545  23.000
  729 1.710 1.444  1.976 1.000 1.00000 1.710 1.000     10.941  23.000
  730 1.700 1.435  1.965 1.000 1.00000 1.700 1.000      4.741  23.000
  731 1.700 1.435  1.965 1.000 1.00000 1.700 1.000      4.678  23.000
  732 1.700 1.435  1.965 1.000 1.00000 1.700 1.000      3.877  23.000
  733 1.700 1.435  1.965 1.000 1.00000 1.700 1.000      3.938  23.000
  734 1.710 1.444  1.976 1.000 1.00000 1.710 1.000     13.769  23.000
  735 1.700 1.435  1.965 1.000 1.00000 1.700 1.000      4.420  23.000
  736 1.700 1.435  1.965 1.000 1.00000 1.700 1.000      4.345  23.000
  737 1.710 1.444  1.976 1.000 1.00000 1.710 1.000      7.654  23.000
  738 1.700 1.435  1.965 1.000 1.00000 1.700 1.000      3.877  23.000
  739 1.700 1.435  1.965 1.000 1.00000 1.700 1.000      6.075  23.000
  740 1.710 1.444  1.976 1.000 1.00000 1.710 1.000     11.326  23.000
  741 1.700 1.435  1.965 1.000 1.00000 1.700 1.000      4.596  23.000
  742 1.700 1.435  1.965 1.000 1.00000 1.700 1.000      4.183  23.000
  743 1.700 1.435  1.965 1.000 1.00000 1.700 1.000      3.953  23.000
  744 1.700 1.435  1.965 1.000 1.00000 1.700 1.000      3.892  23.000
  745 1.710 1.444  1.976 1.000 1.00000 1.710 1.000     11.589  23.000
  746 1.700 1.435  1.965 1.000 1.00000 1.700 1.000      5.050  23.000
  747 1.700 1.435  1.965 1.000 1.00000 1.700 1.000      3.923  23.000
  748 1.700 1.435  1.965 1.000 1.00000 1.700 1.000      3.969  23.000
  749 1.700 1.435  1.965 1.000 1.00000 1.700 1.000      6.514  23.000
  750 1.700 1.435  1.965 1.000 1.00000 1.700 1.000      5.214  23.000
  751 1.700 1.435  1.965 1.000 1.00000 1.700 1.000      6.019  23.000
  752 1.700 1.435  1.965 1.000 1.00000 1.700 1.000      4.784  23.000
  753 1.700 1.435  1.965 1.000 1.00000 1.700 1.000      4.658  23.000
  754 1.700 1.435  1.965 1.000 1.00000 1.700 1.000      4.149  23.000
  755 1.700 1.435  1.965 1.000 1.00000 1.700 1.000      4.345  23.000
  756 1.710 1.444  1.976 1.000 1.00000 1.710 1.000      9.433  23.000
  757 1.700 1.435  1.965 1.000 1.00000 1.700 1.000      4.218  23.000
  758 1.700 1.435  1.965 1.000 1.00000 1.700 1.000      4.033  23.000
  759 1.700 1.435  1.965 1.000 1.00000 1.700 1.000      4.001  23.000
  760 1.710 1.444  1.976 1.000 1.00000 1.710 1.000      8.446  23.000
  761 1.700 1.435  1.965 1.000 1.00000 1.700 1.000      5.287  23.000
  762 1.700 1.435  1.965 1.000 1.00000 1.700 1.000      6.218  23.000
  763 1.700 1.435  1.965 1.000 1.00000 1.700 1.000      4.272  23.000
  764 1.700 1.435  1.965 1.000 1.00000 1.700 1.000      5.772  23.000
  765 1.700 1.435  1.965 1.000 1.00000 1.700 1.000      6.484  23.000
  766 1.700 1.435  1.965 1.000 1.00000 1.700 1.000      4.720  23.000
  767 1.700 1.435  1.965 1.000 1.00000 1.700 1.000      5.963  23.000
  768 1.700 1.435  1.965 1.000 1.00000 1.700 1.000      4.477  23.000
  769 1.700 1.435  1.965 1.000 1.00000 1.700 1.000      5.190  23.000
  770 1.700 1.435  1.965 1.000 1.00000 1.700 1.000      4.016  23.000
  771 1.700 1.435  1.965 1.000 1.00000 1.700 1.000      4.382  23.000
  772 1.700 1.435  1.965 1.000 1.00000 1.700 1.000      4.420  23.000
  773 1.700 1.435  1.965 1.000 1.00000 1.700 1.000      4.149  23.000
  774 1.700 1.435  1.965 1.000 1.00000 1.700 1.000      4.001  23.000
  775 1.700 1.435  1.965 1.000 1.00000 1.700 1.000      6.761  23.000
  776 1.700 1.435  1.965 1.000 1.00000 1.700 1.000      4.016  23.000
  777 1.700 1.435  1.965 1.000 1.00000 1.700 1.000      4.517  23.000
  778 1.700 1.435  1.965 1.000 1.00000 1.700 1.000      4.115  23.000
  779 1.700 1.435  1.965 1.000 1.00000 1.700 1.000      4.308  23.000
  780 1.700 1.435  1.965 1.000 1.00000 1.700 1.000      4.033  23.000
  781 1.700 1.435  1.965 1.000 1.00000 1.700 1.000      5.935  23.000
  782 1.710 1.444  1.976 1.000 1.00000 1.710 1.000     16.814  23.000
  783 1.700 1.435  1.965 1.000 1.00000 1.700 1.000      5.050  23.000
  784 1.700 1.435  1.965 1.000 1.00000 1.700 1.000      4.049  23.000
  785 1.700 1.435  1.965 1.000 1.00000 1.700 1.000      4.290  23.000
  786 1.710 1.444  1.976 1.000 1.00000 1.710 1.000     13.075  23.000
  787 1.700 1.435  1.965 1.000 1.00000 1.700 1.000      5.096  23.000
  788 1.700 1.435  1.965 1.000 1.00000 1.700 1.000      4.382  23.000
  789 1.700 1.435  1.965 1.000 1.00000 1.700 1.000      7.048  23.000
  790 1.700 1.435  1.965 1.000 1.00000 1.700 1.000      4.218  23.000
  791 1.700 1.435  1.965 1.000 1.00000 1.700 1.000      4.218  23.000
  792 1.700 1.435  1.965 1.000 1.00000 1.700 1.000      4.033  23.000
  793 1.700 1.435  1.965 1.000 1.00000 1.700 1.000      6.667  23.000
  794 1.700 1.435  1.965 1.000 1.00000 1.700 1.000      4.892  23.000
  795 1.700 1.435  1.965 1.000 1.00000 1.700 1.000      4.065  23.000
  796 1.700 1.435  1.965 1.000 1.00000 1.700 1.000      3.907  23.000
  797 1.710 1.444  1.976 1.000 1.00000 1.710 1.000     11.857  23.000
  798 1.700 1.435  1.965 1.000 1.00000 1.700 1.000      4.098  23.000
  799 1.700 1.435  1.965 1.000 1.00000 1.700 1.000      4.115  23.000
  800 1.700 1.435  1.965 1.000 1.00000 1.700 1.000      6.019  23.000
  801 1.700 1.435  1.965 1.000 1.00000 1.700 1.000      3.863  23.000
  802 1.700 1.435  1.965 1.000 1.00000 1.700 1.000      6.132  23.000
  803 1.710 1.444  1.976 1.000 1.00000 1.710 1.000     11.903  23.000
  804 1.700 1.435  1.965 1.000 1.00000 1.700 1.000      4.236  23.000
  805 1.700 1.435  1.965 1.000 1.00000 1.700 1.000      5.190  23.000
  806 1.700 1.435  1.965 1.000 1.00000 1.700 1.000      4.458  23.000
  807 1.700 1.435  1.965 1.000 1.00000 1.700 1.000      4.849  23.000
  808 1.700 1.435  1.965 1.000 1.00000 1.700 1.000      4.272  23.000
  809 1.700 1.435  1.965 1.000 1.00000 1.700 1.000      4.033  23.000
  810 1.710 1.444  1.976 1.000 1.00000 1.710 1.000      7.806  23.000
  811 1.700 1.435  1.965 1.000 1.00000 1.700 1.000      4.536  23.000
  812 1.700 1.435  1.965 1.000 1.00000 1.700 1.000      5.536  23.000
  813 1.700 1.435  1.965 1.000 1.00000 1.700 1.000      3.969  23.000
  814 1.700 1.435  1.965 1.000 1.00000 1.700 1.000      4.272  23.000
  815 1.700 1.435  1.965 1.000 1.00000 1.700 1.000      7.346  23.000
  816 1.710 1.444  1.976 1.000 1.00000 1.710 1.000      8.513  23.000
  817 1.700 1.435  1.965 1.000 1.00000 1.700 1.000      3.985  23.000
  818 1.710 1.444  1.976 1.000 1.00000 1.710 1.000      7.745  23.000
  819 1.700 1.435  1.965 1.000 1.00000 1.700 1.000      3.985  23.000
  820 1.700 1.435  1.965 1.000 1.00000 1.700 1.000      6.729  23.000
  821 1.700 1.435  1.965 1.000 1.00000 1.700 1.000      4.827  23.000
  822 1.710 1.444  1.976 1.000 1.00000 1.710 1.000      7.745  23.000
  823 1.700 1.435  1.965 1.000 1.00000 1.700 1.000      4.272  23.000
  824 1.700 1.435  1.965 1.000 1.00000 1.700 1.000      3.892  23.000
  825 1.700 1.435  1.965 1.000 1.00000 1.700 1.000      4.363  23.000
  826 1.710 1.444  1.976 1.000 1.00000 1.710 1.000      8.249  23.000
  827 1.700 1.435  1.965 1.000 1.00000 1.700 1.000      4.326  23.000
  828 1.710 1.444  1.976 1.000 1.00000 1.710 1.000      8.891  23.000
  829 1.700 1.435  1.965 1.000 1.00000 1.700 1.000      6.132  23.000
  830 1.700 1.435  1.965 1.000 1.00000 1.700 1.000      4.082  23.000
  831 1.710 1.444  1.976 1.000 1.00000 1.710 1.000     11.457  23.000
  832 1.710 1.444  1.976 1.000 1.00000 1.710 1.000     19.573  23.000
  833 1.700 1.435  1.965 1.000 1.00000 1.700 1.000      4.132  23.000
  834 1.700 1.435  1.965 1.000 1.00000 1.700 1.000      4.082  23.000
  835 1.700 1.435  1.965 1.000 1.00000 1.700 1.000      4.517  23.000
  836 1.700 1.435  1.965 1.000 1.00000 1.700 1.000      7.279  23.000
  837 1.700 1.435  1.965 1.000 1.00000 1.700 1.000      4.254  23.000
  838 1.700 1.435  1.965 1.000 1.00000 1.700 1.000      5.772  23.000
  839 1.710 1.444  1.976 1.000 1.00000 1.710 1.000      8.649  23.000
  840 1.710 1.444  1.976 1.000 1.00000 1.710 1.000     10.607  23.000
  841 1.710 1.444  1.976 1.000 1.00000 1.710 1.000     12.596  23.000
  842 1.700 1.435  1.965 1.000 1.00000 1.700 1.000      4.016  23.000
  843 1.700 1.435  1.965 1.000 1.00000 1.700 1.000      3.969  23.000
  844 1.700 1.435  1.965 1.000 1.00000 1.700 1.000      4.201  23.000
  845 1.700 1.435  1.965 1.000 1.00000 1.700 1.000      4.870  23.000
  846 1.700 1.435  1.965 1.000 1.00000 1.700 1.000      4.016  23.000
  847 1.700 1.435  1.965 1.000 1.00000 1.700 1.000      6.103  23.000
  848 1.700 1.435  1.965 1.000 1.00000 1.700 1.000      4.236  23.000
  849 1.700 1.435  1.965 1.000 1.00000 1.700 1.000      5.287  23.000
  850 1.700 1.435  1.965 1.000 1.00000 1.700 1.000      5.027  23.000
  851 1.700 1.435  1.965 1.000 1.00000 1.700 1.000      5.826  23.000
  852 1.700 1.435  1.965 1.000 1.00000 1.700 1.000      4.849  23.000
  853 1.700 1.435  1.965 1.000 1.00000 1.700 1.000      4.272  23.000
  854 1.710 1.444  1.976 1.000 1.00000 1.710 1.000      9.696  23.000
  855 1.710 1.444  1.976 1.000 1.00000 1.710 1.000     13.271  23.000
  856 1.700 1.435  1.965 1.000 1.00000 1.700 1.000      4.065  23.000
  857 1.700 1.435  1.965 1.000 1.00000 1.700 1.000      4.115  23.000
  858 1.700 1.435  1.965 1.000 1.00000 1.700 1.000      4.254  23.000
  859 1.710 1.444  1.976 1.000 1.00000 1.710 1.000     13.271  23.000
  860 1.700 1.435  1.965 1.000 1.00000 1.700 1.000      4.517  23.000
  861 1.700 1.435  1.965 1.000 1.00000 1.700 1.000      4.870  23.000
  862 1.700 1.435  1.965 1.000 1.00000 1.700 1.000      4.236  23.000
  863 1.700 1.435  1.965 1.000 1.00000 1.700 1.000      3.985  23.000
  864 1.700 1.435  1.965 1.000 1.00000 1.700 1.000      4.236  23.000
  865 1.700 1.435  1.965 1.000 1.00000 1.700 1.000      4.345  23.000
  866 1.700 1.435  1.965 1.000 1.00000 1.700 1.000      4.596  23.000
  867 1.700 1.435  1.965 1.000 1.00000 1.700 1.000      6.514  23.000
  868 1.700 1.435  1.965 1.000 1.00000 1.700 1.000      6.761  23.000
  869 1.700 1.435  1.965 1.000 1.00000 1.700 1.000      4.805  23.000
  870 1.700 1.435  1.965 1.000 1.00000 1.700 1.000      3.923  23.000
  871 1.700 1.435  1.965 1.000 1.00000 1.700 1.000      4.001  23.000
  872 1.700 1.435  1.965 1.000 1.00000 1.700 1.000      6.454  23.000
  873 1.700 1.435  1.965 1.000 1.00000 1.700 1.000      5.745  23.000
  874 1.700 1.435  1.965 1.000 1.00000 1.700 1.000      4.401  23.000
  875 1.700 1.435  1.965 1.000 1.00000 1.700 1.000      4.016  23.000
  876 1.700 1.435  1.965 1.000 1.00000 1.700 1.000      5.692  23.000
  877 1.700 1.435  1.965 1.000 1.00000 1.700 1.000      3.892  23.000
  878 1.700 1.435  1.965 1.000 1.00000 1.700 1.000      7.313  23.000
  879 1.700 1.435  1.965 1.000 1.00000 1.700 1.000      4.326  23.000
  880 1.700 1.435  1.965 1.000 1.00000 1.700 1.000      5.027  23.000
  881 1.700 1.435  1.965 1.000 1.00000 1.700 1.000      4.033  23.000
  882 1.700 1.435  1.965 1.000 1.00000 1.700 1.000      4.115  23.000
  883 1.700 1.435  1.965 1.000 1.00000 1.700 1.000      4.183  23.000
  884 1.700 1.435  1.965 1.000 1.00000 1.700 1.000      3.877  23.000
  885 1.700 1.435  1.965 1.000 1.00000 1.700 1.000      4.849  23.000
  886 1.700 1.435  1.965 1.000 1.00000 1.700 1.000      4.272  23.000
  887 1.710 1.444  1.976 1.000 1.00000 1.710 1.000      8.056  23.000
  888 1.700 1.435  1.965 1.000 1.00000 1.700 1.000      4.166  23.000
  889 1.700 1.435  1.965 1.000 1.00000 1.700 1.000      3.985  23.000
  890 1.700 1.435  1.965 1.000 1.00000 1.700 1.000      4.556  23.000
  891 1.700 1.435  1.965 1.000 1.00000 1.700 1.000      4.658  23.000
  892 1.700 1.435  1.965 1.000 1.00000 1.700 1.000      4.115  23.000
  893 1.700 1.435  1.965 1.000 1.00000 1.700 1.000      5.262  23.000
  894 1.700 1.435  1.965 1.000 1.00000 1.700 1.000      4.098  23.000
  895 1.700 1.435  1.965 1.000 1.00000 1.700 1.000      3.923  23.000
  896 1.700 1.435  1.965 1.000 1.00000 1.700 1.000      3.953  23.000
  897 1.700 1.435  1.965 1.000 1.00000 1.700 1.000      4.982  23.000
  898 1.710 1.444  1.976 1.000 1.00000 1.710 1.000     13.618  23.000
  899 1.710 1.444  1.976 1.000 1.00000 1.710 1.000      7.684  23.000
  900 1.700 1.435  1.965 1.000 1.00000 1.700 1.000      5.640  23.000
  901 1.700 1.435  1.965 1.000 1.00000 1.700 1.000      4.272  23.000
  902 1.700 1.435  1.965 1.000 1.00000 1.700 1.000      4.401  23.000
  903 1.700 1.435  1.965 1.000 1.00000 1.700 1.000      4.439  23.000
  904 1.700 1.435  1.965 1.000 1.00000 1.700 1.000      4.849  23.000
  905 1.700 1.435  1.965 1.000 1.00000 1.700 1.000      5.238  23.000
  906 1.700 1.435  1.965 1.000 1.00000 1.700 1.000      4.699  23.000
  907 1.700 1.435  1.965 1.000 1.00000 1.700 1.000      4.401  23.000
  908 1.700 1.435  1.965 1.000 1.00000 1.700 1.000      4.617  23.000
  909 1.700 1.435  1.965 1.000 1.00000 1.700 1.000      4.382  23.000
  910 1.700 1.435  1.965 1.000 1.00000 1.700 1.000      4.420  23.000
  911 1.700 1.435  1.965 1.000 1.00000 1.700 1.000      4.849  23.000
  912 1.710 1.444  1.976 1.000 1.00000 1.710 1.000      9.508  23.000
  913 1.710 1.444  1.976 1.000 1.00000 1.710 1.000      8.152  23.000
  914 1.700 1.435  1.965 1.000 1.00000 1.700 1.000      4.033  23.000
  915 1.700 1.435  1.965 1.000 1.00000 1.700 1.000      7.048  23.000
  916 1.700 1.435  1.965 1.000 1.00000 1.700 1.000      4.658  23.000
  917 1.700 1.435  1.965 1.000 1.00000 1.700 1.000      4.741  23.000
  918 1.700 1.435  1.965 1.000 1.00000 1.700 1.000      4.001  23.000
  919 1.710 1.444  1.976 1.000 1.00000 1.710 1.000     21.432  23.000
  920 1.700 1.435  1.965 1.000 1.00000 1.700 1.000      4.517  23.000
  921 1.700 1.435  1.965 1.000 1.00000 1.700 1.000      4.439  23.000
  922 1.700 1.435  1.965 1.000 1.00000 1.700 1.000      3.938  23.000
  923 1.700 1.435  1.965 1.000 1.00000 1.700 1.000      6.047  23.000
  924 1.700 1.435  1.965 1.000 1.00000 1.700 1.000      4.556  23.000
  925 1.700 1.435  1.965 1.000 1.00000 1.700 1.000      4.033  23.000
  926 1.700 1.435  1.965 1.000 1.00000 1.700 1.000      4.637  23.000
  927 1.700 1.435  1.965 1.000 1.00000 1.700 1.000      3.863  23.000
  928 1.700 1.435  1.965 1.000 1.00000 1.700 1.000      6.394  23.000
  929 1.700 1.435  1.965 1.000 1.00000 1.700 1.000      5.190  23.000
  930 1.700 1.435  1.965 1.000 1.00000 1.700 1.000      5.143  23.000
  931 1.700 1.435  1.965 1.000 1.00000 1.700 1.000      5.588  23.000
  932 1.700 1.435  1.965 1.000 1.00000 1.700 1.000      6.484  23.000
  933 1.700 1.435  1.965 1.000 1.00000 1.700 1.000      4.477  23.000
  934 1.700 1.435  1.965 1.000 1.00000 1.700 1.000      4.218  23.000
  935 1.700 1.435  1.965 1.000 1.00000 1.700 1.000      6.132  23.000
  936 1.710 1.444  1.976 1.000 1.00000 1.710 1.000     11.767  23.000
  937 1.700 1.435  1.965 1.000 1.00000 1.700 1.000      3.938  23.000
  938 1.700 1.435  1.965 1.000 1.00000 1.700 1.000      5.991  23.000
  939 1.700 1.435  1.965 1.000 1.00000 1.700 1.000      4.254  23.000
  940 1.700 1.435  1.965 1.000 1.00000 1.700 1.000      4.982  23.000
  941 1.700 1.435  1.965 1.000 1.00000 1.700 1.000      6.047  23.000
  942 1.700 1.435  1.965 1.000 1.00000 1.700 1.000      4.937  23.000
  943 1.700 1.435  1.965 1.000 1.00000 1.700 1.000      3.969  23.000
  944 1.700 1.435  1.965 1.000 1.00000 1.700 1.000      3.953  23.000
  945 1.700 1.435  1.965 1.000 1.00000 1.700 1.000      4.617  23.000
  946 1.700 1.435  1.965 1.000 1.00000 1.700 1.000      7.113  23.000
  947 1.700 1.435  1.965 1.000 1.00000 1.700 1.000      4.254  23.000
  948 1.700 1.435  1.965 1.000 1.00000 1.700 1.000      4.458  23.000
  949 1.700 1.435  1.965 1.000 1.00000 1.700 1.000      4.401  23.000
  950 1.710 1.444  1.976 1.000 1.00000 1.710 1.000      8.216  23.000
  951 1.700 1.435  1.965 1.000 1.00000 1.700 1.000      3.985  23.000
  952 1.700 1.435  1.965 1.000 1.00000 1.700 1.000      4.272  23.000
  953 1.710 1.444  1.976 1.000 1.00000 1.710 1.000     10.484  23.000
  954 1.700 1.435  1.965 1.000 1.00000 1.700 1.000      3.938  23.000
  955 1.710 1.444  1.976 1.000 1.00000 1.710 1.000      9.966  23.000
  956 1.700 1.435  1.965 1.000 1.00000 1.700 1.000      3.953  23.000
  957 1.700 1.435  1.965 1.000 1.00000 1.700 1.000      4.849  23.000
  958 1.700 1.435  1.965 1.000 1.00000 1.700 1.000      4.678  23.000
  959 1.700 1.435  1.965 1.000 1.00000 1.700 1.000      4.149  23.000
  960 1.700 1.435  1.965 1.000 1.00000 1.700 1.000      4.959  23.000
  961 1.700 1.435  1.965 1.000 1.00000 1.700 1.000      4.082  23.000
  962 1.700 1.435  1.965 1.000 1.00000 1.700 1.000      6.636  23.000
  963 1.700 1.435  1.965 1.000 1.00000 1.700 1.000      5.311  23.000
  964 1.700 1.435  1.965 1.000 1.00000 1.700 1.000      5.214  23.000
  965 1.700 1.435  1.965 1.000 1.00000 1.700 1.000      4.183  23.000
  966 1.700 1.435  1.965 1.000 1.00000 1.700 1.000      4.166  23.000
  967 1.700 1.435  1.965 1.000 1.00000 1.700 1.000      6.132  23.000
  968 1.700 1.435  1.965 1.000 1.00000 1.700 1.000      4.183  23.000
  969 1.700 1.435  1.965 1.000 1.00000 1.700 1.000      4.937  23.000
  970 1.700 1.435  1.965 1.000 1.00000 1.700 1.000      4.166  23.000
  971 1.700 1.435  1.965 1.000 1.00000 1.700 1.000      5.335  23.000
  972 1.700 1.435  1.965 1.000 1.00000 1.700 1.000      4.201  23.000
  973 1.700 1.435  1.965 1.000 1.00000 1.700 1.000      4.149  23.000
  974 1.700 1.435  1.965 1.000 1.00000 1.700 1.000      4.033  23.000
  975 1.700 1.435  1.965 1.000 1.00000 1.700 1.000      4.915  23.000
  976 1.700 1.435  1.965 1.000 1.00000 1.700 1.000      4.401  23.000
  977 1.700 1.435  1.965 1.000 1.00000 1.700 1.000      4.762  23.000
  978 1.700 1.435  1.965 1.000 1.00000 1.700 1.000      4.345  23.000
  979 1.700 1.435  1.965 1.000 1.00000 1.700 1.000      4.272  23.000
  980 1.700 1.435  1.965 1.000 1.00000 1.700 1.000      4.308  23.000
  981 1.700 1.435  1.965 1.000 1.00000 1.700 1.000      4.082  23.000
  982 1.710 1.444  1.976 1.000 1.00000 1.710 1.000      8.927  23.000
  983 1.700 1.435  1.965 1.000 1.00000 1.700 1.000      4.784  23.000
  984 1.700 1.435  1.965 1.000 1.00000 1.700 1.000      4.345  23.000
  985 1.700 1.435  1.965 1.000 1.00000 1.700 1.000      3.907  23.000
  986 1.700 1.435  1.965 1.000 1.00000 1.700 1.000      3.969  23.000
  987 1.700 1.435  1.965 1.000 1.00000 1.700 1.000      5.908  23.000
  988 1.700 1.435  1.965 1.000 1.00000 1.700 1.000      5.360  23.000
  989 1.700 1.435  1.965 1.000 1.00000 1.700 1.000      4.805  23.000
  990 1.700 1.435  1.965 1.000 1.00000 1.700 1.000      4.149  23.000
  991 1.710 1.444  1.976 1.000 1.00000 1.710 1.000     11.370  23.000
  992 1.700 1.435  1.965 1.000 1.00000 1.700 1.000      4.098  23.000
  993 1.700 1.435  1.965 1.000 1.00000 1.700 1.000      3.969  23.000
  994 1.700 1.435  1.965 1.000 1.00000 1.700 1.000      6.698  23.000
  995 1.700 1.435  1.965 1.000 1.00000 1.700 1.000      4.382  23.000
  996 1.700 1.435  1.965 1.000 1.00000 1.700 1.000      4.497  23.000
  997 1.700 1.435  1.965 1.000 1.00000 1.700 1.000      4.517  23.000
  998 1.700 1.435  1.965 1.000 1.00000 1.700 1.000      3.877  23.000
  999 1.700 1.435  1.965 1.000 1.00000 1.700 1.000      5.410  23.000
 1000 1.700 1.435  1.965 1.000 1.00000 1.700 1.000      4.033  23.000
 1001 1.700 1.435  1.965 1.000 1.00000 1.700 1.000      4.236  23.000
 1002 1.700 1.435  1.965 1.000 1.00000 1.700 1.000      4.166  23.000
 1003 1.700 1.435  1.965 1.000 1.00000 1.700 1.000      6.575  23.000
 1004 1.700 1.435  1.965 1.000 1.00000 1.700 1.000      4.254  23.000
 1005 1.700 1.435  1.965 1.000 1.00000 1.700 1.000      4.049  23.000
 1006 1.700 1.435  1.965 1.000 1.00000 1.700 1.000      4.658  23.000
 1007 1.700 1.435  1.965 1.000 1.00000 1.700 1.000      4.132  23.000
 1008 1.700 1.435  1.965 1.000 1.00000 1.700 1.000      5.190  23.000
 1009 1.700 1.435  1.965 1.000 1.00000 1.700 1.000      6.729  23.000
 1010 1.700 1.435  1.965 1.000 1.00000 1.700 1.000      6.575  23.000
 1011 1.710 1.444  1.976 1.000 1.00000 1.710 1.000      9.888  23.000
 1012 1.710 1.444  1.976 1.000 1.00000 1.710 1.000     15.788  23.000
 1013 1.710 1.444  1.976 1.000 1.00000 1.710 1.000     10.525  23.000
 1014 1.700 1.435  1.965 1.000 1.00000 1.700 1.000      4.183  23.000
 1015 1.700 1.435  1.965 1.000 1.00000 1.700 1.000      4.183  23.000
 1016 1.700 1.435  1.965 1.000 1.00000 1.700 1.000      5.640  23.000
 1017 1.700 1.435  1.965 1.000 1.00000 1.700 1.000      5.214  23.000
 1018 1.700 1.435  1.965 1.000 1.00000 1.700 1.000      4.536  23.000
 1019 1.700 1.435  1.965 1.000 1.00000 1.700 1.000      3.969  23.000
 1020 1.700 1.435  1.965 1.000 1.00000 1.700 1.000      4.049  23.000
 1021 1.700 1.435  1.965 1.000 1.00000 1.700 1.000      4.254  23.000
 1022 1.700 1.435  1.965 1.000 1.00000 1.700 1.000      4.326  23.000
 1023 1.700 1.435  1.965 1.000 1.00000 1.700 1.000      6.218  23.000
 1024 1.700 1.435  1.965 1.000 1.00000 1.700 1.000      4.115  23.000
 1025 1.700 1.435  1.965 1.000 1.00000 1.700 1.000      3.969  23.000
 1026 1.700 1.435  1.965 1.000 1.00000 1.700 1.000      4.477  23.000
 1027 1.700 1.435  1.965 1.000 1.00000 1.700 1.000      4.720  23.000
 1028 1.700 1.435  1.965 1.000 1.00000 1.700 1.000      3.877  23.000
 1029 1.700 1.435  1.965 1.000 1.00000 1.700 1.000      4.065  23.000
 1030 1.700 1.435  1.965 1.000 1.00000 1.700 1.000      5.287  23.000
 1031 1.700 1.435  1.965 1.000 1.00000 1.700 1.000      6.161  23.000
 1032 1.700 1.435  1.965 1.000 1.00000 1.700 1.000      3.938  23.000
 1033 1.700 1.435  1.965 1.000 1.00000 1.700 1.000      4.082  23.000
 1034 1.700 1.435  1.965 1.000 1.00000 1.700 1.000      4.082  23.000
 1035 1.700 1.435  1.965 1.000 1.00000 1.700 1.000      5.410  23.000
 1036 1.700 1.435  1.965 1.000 1.00000 1.700 1.000      4.082  23.000
 1037 1.700 1.435  1.965 1.000 1.00000 1.700 1.000      4.290  23.000
 1038 1.700 1.435  1.965 1.000 1.00000 1.700 1.000      3.892  23.000
 1039 1.700 1.435  1.965 1.000 1.00000 1.700 1.000      4.439  23.000
 1040 1.700 1.435  1.965 1.000 1.00000 1.700 1.000      3.892  23.000
 1041 1.700 1.435  1.965 1.000 1.00000 1.700 1.000      5.120  23.000
 1042 1.700 1.435  1.965 1.000 1.00000 1.700 1.000      4.065  23.000
 1043 1.710 1.444  1.976 1.000 1.00000 1.710 1.000      9.286  23.000
 1044 1.700 1.435  1.965 1.000 1.00000 1.700 1.000      6.365  23.000
 1045 1.700 1.435  1.965 1.000 1.00000 1.700 1.000      4.915  23.000
 1046 1.700 1.435  1.965 1.000 1.00000 1.700 1.000      4.290  23.000
 1047 1.700 1.435  1.965 1.000 1.00000 1.700 1.000      4.915  23.000
 1048 1.700 1.435  1.965 1.000 1.00000 1.700 1.000      4.065  23.000
 1049 1.700 1.435  1.965 1.000 1.00000 1.700 1.000      3.892  23.000
 1050 1.700 1.435  1.965 1.000 1.00000 1.700 1.000      4.536  23.000
 1051 1.710 1.444  1.976 1.000 1.00000 1.710 1.000     12.455  23.000
 1052 1.700 1.435  1.965 1.000 1.00000 1.700 1.000      7.279  23.000
 1053 1.700 1.435  1.965 1.000 1.00000 1.700 1.000      5.666  23.000
 1054 1.700 1.435  1.965 1.000 1.00000 1.700 1.000      5.640  23.000
 1055 1.700 1.435  1.965 1.000 1.00000 1.700 1.000      3.985  23.000
 1056 1.710 1.444  1.976 1.000 1.00000 1.710 1.000     11.068  23.000
 1057 1.700 1.435  1.965 1.000 1.00000 1.700 1.000      4.363  23.000
 1058 1.700 1.435  1.965 1.000 1.00000 1.700 1.000      5.385  23.000
 1059 1.700 1.435  1.965 1.000 1.00000 1.700 1.000      4.065  23.000
 1060 1.700 1.435  1.965 1.000 1.00000 1.700 1.000      4.218  23.000
 1061 1.700 1.435  1.965 1.000 1.00000 1.700 1.000      4.401  23.000
 1062 1.710 1.444  1.976 1.000 1.00000 1.710 1.000     10.202  23.000
 1063 1.700 1.435  1.965 1.000 1.00000 1.700 1.000      4.218  23.000
 1064 1.710 1.444  1.976 1.000 1.00000 1.710 1.000     10.484  23.000
 1065 1.700 1.435  1.965 1.000 1.00000 1.700 1.000      4.699  23.000
 1066 1.700 1.435  1.965 1.000 1.00000 1.700 1.000      4.001  23.000
 1067 1.710 1.444  1.976 1.000 1.00000 1.710 1.000     13.719  23.000
 1068 1.700 1.435  1.965 1.000 1.00000 1.700 1.000      4.959  23.000
 1069 1.700 1.435  1.965 1.000 1.00000 1.700 1.000      4.536  23.000
 1070 1.700 1.435  1.965 1.000 1.00000 1.700 1.000      6.887  23.000
 1071 1.710 1.444  1.976 1.000 1.00000 1.710 1.000      8.683  23.000
 1072 1.700 1.435  1.965 1.000 1.00000 1.700 1.000      4.132  23.000
 1073 1.700 1.435  1.965 1.000 1.00000 1.700 1.000      4.345  23.000
 1074 1.710 1.444  1.976 1.000 1.00000 1.710 1.000     12.882  23.000
 1075 1.700 1.435  1.965 1.000 1.00000 1.700 1.000      6.189  23.000
 1076 1.700 1.435  1.965 1.000 1.00000 1.700 1.000      4.098  23.000
 1077 1.700 1.435  1.965 1.000 1.00000 1.700 1.000      4.254  23.000
 1078 1.700 1.435  1.965 1.000 1.00000 1.700 1.000      5.511  23.000
 1079 1.700 1.435  1.965 1.000 1.00000 1.700 1.000      5.772  23.000
 1080 1.700 1.435  1.965 1.000 1.00000 1.700 1.000      4.201  23.000
 1081 1.700 1.435  1.965 1.000 1.00000 1.700 1.000      4.741  23.000
 1082 1.700 1.435  1.965 1.000 1.00000 1.700 1.000      4.849  23.000
 1083 1.700 1.435  1.965 1.000 1.00000 1.700 1.000      4.218  23.000
 1084 1.700 1.435  1.965 1.000 1.00000 1.700 1.000      4.236  23.000
 1085 1.700 1.435  1.965 1.000 1.00000 1.700 1.000      4.401  23.000
 1086 1.700 1.435  1.965 1.000 1.00000 1.700 1.000      5.853  23.000
 1087 1.700 1.435  1.965 1.000 1.00000 1.700 1.000      4.132  23.000
 1088 1.700 1.435  1.965 1.000 1.00000 1.700 1.000      4.982  23.000
 1089 1.700 1.435  1.965 1.000 1.00000 1.700 1.000      4.082  23.000
 1090 1.700 1.435  1.965 1.000 1.00000 1.700 1.000      4.699  23.000
 1091 1.700 1.435  1.965 1.000 1.00000 1.700 1.000      4.596  23.000
 1092 1.710 1.444  1.976 1.000 1.00000 1.710 1.000     11.767  23.000
 1093 1.710 1.444  1.976 1.000 1.00000 1.710 1.000     13.719  23.000
 1094 1.700 1.435  1.965 1.000 1.00000 1.700 1.000      4.033  23.000
 1095 1.700 1.435  1.965 1.000 1.00000 1.700 1.000      4.959  23.000
 1096 1.700 1.435  1.965 1.000 1.00000 1.700 1.000      4.345  23.000
 1097 1.700 1.435  1.965 1.000 1.00000 1.700 1.000      4.254  23.000
 1098 1.700 1.435  1.965 1.000 1.00000 1.700 1.000      4.001  23.000
 1099 1.700 1.435  1.965 1.000 1.00000 1.700 1.000      4.699  23.000
 1100 1.700 1.435  1.965 1.000 1.00000 1.700 1.000      4.272  23.000
