## File LOS/SB2_B2004a_2.8z_Mags_100.bpz  Fri Aug 12 23:36:55 2016
##
##Parameters used to run BPZ:
##
##AB_DIR=/home/lidenscheng/bpz-1.99.3//AB/
##ADD_CONTINUOUS_PROB=None
##ADD_SPEC_PROB=None
##CHECK=LOS/SB2_B2004a_2.8z_Mags_100.flux_comparison
##COLOR=no
##COLUMNS=losNoErrors.columns
##CONVOLVE_P=yes
##DELTA_M_0=0.0
##DZ=0.01
##EXCLUDE=none
##FC=None
##FILTER_DIR=/home/lidenscheng/MK_DirectSim/filters/
##GET_Z=yes
##INPUT=LOS/SB2_B2004a_2.8z_Mags_100.txt
##INTERACTIVE=yes
##INTERP=0
##MADAU=no
##MAG=yes
##MEAN_IGM=yes
##MERGE_PEAKS=no
##MIN_MAGERR=0.001
##MIN_RMS=0.05
##NEW_AB=no
##NMAX=None
##NTYPES=None
##N_PEAKS=1
##ODDS=0.95
##ONLY_TYPE=no
##OUTPUT=LOS/SB2_B2004a_2.8z_Mags_100.bpz
##PHOTO_ERRORS=no
##PLOTS=no
##PRIOR=none
##PROBS=no
##PROBS2=no
##PROBS_LITE=LOS/SB2_B2004a_2.8z_Mags_100.probs
##P_MIN=0.01
##SED_DIR=/home/lidenscheng/MK_DirectSim/SEDs/
##SPECTRA=SB2.list
##VERBOSE=yes
##ZC=None
##ZMAX=10.0
##ZMIN=0.01
##ZP_OFFSETS=0.0
##Z_THR=0
##
##Column information
##
# 1 ID
# 2 Z_B
# 3 Z_B_MIN
# 4 Z_B_MAX
# 5 T_B
# 6 ODDS    
# 7 Z_ML
# 8 T_ML
# 9 CHI-SQUARED
# 10 M_0
##
    1 2.930 2.545  3.315 1.000 1.00000 2.930 1.000     20.183  23.000
    2 2.930 2.545  3.315 1.000 1.00000 2.930 1.000     42.680  23.000
    3 2.890 2.509  3.271 1.000 1.00000 2.890 1.000     24.898  23.000
    4 2.860 2.482  3.238 1.000 1.00000 2.860 1.000     10.774  23.000
    5 2.850 2.473  3.227 1.000 1.00000 2.850 1.000      2.767  23.000
    6 2.860 2.482  3.238 1.000 1.00000 2.860 1.000      8.253  23.000
    7 2.900 2.518  3.282 1.000 1.00000 2.900 1.000      8.818  23.000
    8 2.900 2.518  3.282 1.000 1.00000 2.900 1.000     10.690  23.000
    9 2.870 2.491  3.249 1.000 1.00000 2.870 1.000      4.229  23.000
   10 2.850 2.473  3.227 1.000 1.00000 2.850 1.000      9.452  23.000
   11 2.930 2.545  3.315 1.000 1.00000 2.930 1.000     52.800  23.000
   12 2.850 2.473  3.227 1.000 1.00000 2.850 1.000      5.103  23.000
   13 2.880 2.500  3.260 1.000 1.00000 2.880 1.000     18.054  23.000
   14 2.950 2.563  3.337 1.000 1.00000 2.950 1.000     16.932  23.000
   15 2.930 2.545  3.315 1.000 1.00000 2.930 1.000     26.892  23.000
   16 2.920 2.536  3.304 1.000 1.00000 2.920 1.000     35.841  23.000
   17 2.910 2.527  3.293 1.000 1.00000 2.910 1.000     25.669  23.000
   18 2.870 2.491  3.249 1.000 1.00000 2.870 1.000      5.121  23.000
   19 2.890 2.509  3.271 1.000 1.00000 2.890 1.000     15.886  23.000
   20 2.900 2.518  3.282 1.000 1.00000 2.900 1.000     27.815  23.000
   21 2.860 2.482  3.238 1.000 1.00000 2.860 1.000     13.045  23.000
   22 2.880 2.500  3.260 1.000 1.00000 2.880 1.000     11.425  23.000
   23 2.860 2.482  3.238 1.000 1.00000 2.860 1.000      9.892  23.000
   24 2.850 2.473  3.227 1.000 1.00000 2.850 1.000     13.255  23.000
   25 2.930 2.545  3.315 1.000 1.00000 2.930 1.000     32.706  23.000
   26 2.910 2.527  3.293 1.000 1.00000 2.910 1.000     25.494  23.000
   27 2.860 2.482  3.238 1.000 1.00000 2.860 1.000      4.284  23.000
   28 2.930 2.545  3.315 1.000 1.00000 2.930 1.000     56.741  23.000
   29 2.920 2.536  3.304 1.000 1.00000 2.920 1.000     20.029  23.000
   30 2.910 2.527  3.293 1.000 1.00000 2.910 1.000     21.596  23.000
   31 2.900 2.518  3.282 1.000 1.00000 2.900 1.000     23.652  23.000
   32 2.860 2.482  3.238 1.000 1.00000 2.860 1.000     10.411  23.000
   33 2.860 2.482  3.238 1.000 1.00000 2.860 1.000      9.666  23.000
   34 2.930 2.545  3.315 1.000 1.00000 2.930 1.000     24.511  23.000
   35 2.920 2.536  3.304 1.000 1.00000 2.920 1.000     17.166  23.000
   36 2.890 2.509  3.271 1.000 1.00000 2.890 1.000     33.539  23.000
   37 2.920 2.536  3.304 1.000 1.00000 2.920 1.000     40.329  23.000
   38 2.940 2.554  3.326 1.000 1.00000 2.940 1.000     55.737  23.000
   39 2.850 2.473  3.227 1.000 1.00000 2.850 1.000     23.128  23.000
   40 2.920 2.536  3.304 1.000 1.00000 2.920 1.000     28.380  23.000
   41 2.930 2.545  3.315 1.000 1.00000 2.930 1.000     27.643  23.000
   42 2.950 2.563  3.337 1.000 1.00000 2.950 1.000     41.520  23.000
   43 2.920 2.536  3.304 1.000 1.00000 2.920 1.000     23.086  23.000
   44 2.880 2.500  3.260 1.000 1.00000 2.880 1.000     28.511  23.000
   45 2.850 2.473  3.227 1.000 1.00000 2.850 1.000     19.144  23.000
   46 2.910 2.527  3.293 1.000 1.00000 2.910 1.000     10.747  23.000
   47 2.850 2.473  3.227 1.000 1.00000 2.850 1.000     14.397  23.000
   48 2.890 2.509  3.271 1.000 1.00000 2.890 1.000     10.894  23.000
   49 2.960 2.572  3.348 1.000 1.00000 2.960 1.000     50.892  23.000
   50 2.860 2.482  3.238 1.000 1.00000 2.860 1.000     28.179  23.000
   51 2.900 2.518  3.282 1.000 1.00000 2.900 1.000     15.476  23.000
   52 2.930 2.545  3.315 1.000 1.00000 2.930 1.000     28.330  23.000
   53 2.880 2.500  3.260 1.000 1.00000 2.880 1.000     14.358  23.000
   54 2.890 2.509  3.271 1.000 1.00000 2.890 1.000     14.498  23.000
   55 2.880 2.500  3.260 1.000 1.00000 2.880 1.000     19.607  23.000
   56 2.910 2.527  3.293 1.000 1.00000 2.910 1.000     15.154  23.000
   57 2.850 2.473  3.227 1.000 1.00000 2.850 1.000      3.124  23.000
   58 2.830 2.455  3.205 1.000 1.00000 2.830 1.000      1.885  23.000
   59 2.870 2.491  3.249 1.000 1.00000 2.870 1.000     14.277  23.000
   60 2.880 2.500  3.260 1.000 1.00000 2.880 1.000     20.796  23.000
   61 2.890 2.509  3.271 1.000 1.00000 2.890 1.000     22.451  23.000
   62 2.860 2.482  3.238 1.000 1.00000 2.860 1.000      9.509  23.000
   63 2.880 2.500  3.260 1.000 1.00000 2.880 1.000     25.515  23.000
   64 2.940 2.554  3.326 1.000 1.00000 2.940 1.000     20.864  23.000
   65 2.930 2.545  3.315 1.000 1.00000 2.930 1.000     28.910  23.000
   66 2.860 2.482  3.238 1.000 1.00000 2.860 1.000     10.248  23.000
   67 2.960 2.572  3.348 1.000 1.00000 2.960 1.000     65.907  23.000
   68 2.870 2.491  3.249 1.000 1.00000 2.870 1.000     28.700  23.000
   69 2.870 2.491  3.249 1.000 1.00000 2.870 1.000     19.276  23.000
   70 2.850 2.473  3.227 1.000 1.00000 2.850 1.000     13.666  23.000
   71 2.890 2.509  3.271 1.000 1.00000 2.890 1.000     26.368  23.000
   72 2.890 2.509  3.271 1.000 1.00000 2.890 1.000     17.232  23.000
   73 2.850 2.473  3.227 1.000 1.00000 2.850 1.000      8.387  23.000
   74 2.860 2.482  3.238 1.000 1.00000 2.860 1.000     20.440  23.000
   75 2.850 2.473  3.227 1.000 1.00000 2.850 1.000     22.412  23.000
   76 2.930 2.545  3.315 1.000 1.00000 2.930 1.000     17.487  23.000
   77 2.840 2.464  3.216 1.000 1.00000 2.840 1.000      2.578  23.000
   78 2.920 2.536  3.304 1.000 1.00000 2.920 1.000     16.301  23.000
   79 2.860 2.482  3.238 1.000 1.00000 2.860 1.000     25.364  23.000
   80 2.890 2.509  3.271 1.000 1.00000 2.890 1.000     22.311  23.000
   81 2.870 2.491  3.249 1.000 1.00000 2.870 1.000     11.719  23.000
   82 2.920 2.536  3.304 1.000 1.00000 2.920 1.000     24.635  23.000
   83 2.900 2.518  3.282 1.000 1.00000 2.900 1.000     18.179  23.000
   84 2.850 2.473  3.227 1.000 1.00000 2.850 1.000     14.668  23.000
   85 2.870 2.491  3.249 1.000 1.00000 2.870 1.000     17.394  23.000
   86 2.860 2.482  3.238 1.000 1.00000 2.860 1.000     28.789  23.000
   87 2.870 2.491  3.249 1.000 1.00000 2.870 1.000     22.370  23.000
   88 2.860 2.482  3.238 1.000 1.00000 2.860 1.000      7.202  23.000
   89 2.920 2.536  3.304 1.000 1.00000 2.920 1.000     15.838  23.000
   90 2.860 2.482  3.238 1.000 1.00000 2.860 1.000     13.425  23.000
   91 2.930 2.545  3.315 1.000 1.00000 2.930 1.000     31.680  23.000
   92 2.860 2.482  3.238 1.000 1.00000 2.860 1.000     17.440  23.000
   93 2.960 2.572  3.348 1.000 1.00000 2.960 1.000     41.773  23.000
   94 2.910 2.527  3.293 1.000 1.00000 2.910 1.000     24.646  23.000
   95 2.880 2.500  3.260 1.000 1.00000 2.880 1.000     16.875  23.000
   96 2.900 2.518  3.282 1.000 1.00000 2.900 1.000     14.816  23.000
   97 2.910 2.527  3.293 1.000 1.00000 2.910 1.000     17.511  23.000
   98 2.870 2.491  3.249 1.000 1.00000 2.870 1.000     16.376  23.000
   99 2.850 2.473  3.227 1.000 1.00000 2.850 1.000     25.547  23.000
  100 2.840 2.464  3.216 1.000 1.00000 2.840 1.000      2.518  23.000
