## File LOS/SB2_B2004a_2.1z_Mags_500.bpz  Fri Aug 12 23:38:03 2016
##
##Parameters used to run BPZ:
##
##AB_DIR=/home/lidenscheng/bpz-1.99.3//AB/
##ADD_CONTINUOUS_PROB=None
##ADD_SPEC_PROB=None
##CHECK=LOS/SB2_B2004a_2.1z_Mags_500.flux_comparison
##COLOR=no
##COLUMNS=losNoErrors.columns
##CONVOLVE_P=yes
##DELTA_M_0=0.0
##DZ=0.01
##EXCLUDE=none
##FC=None
##FILTER_DIR=/home/lidenscheng/MK_DirectSim/filters/
##GET_Z=yes
##INPUT=LOS/SB2_B2004a_2.1z_Mags_500.txt
##INTERACTIVE=yes
##INTERP=0
##MADAU=no
##MAG=yes
##MEAN_IGM=yes
##MERGE_PEAKS=no
##MIN_MAGERR=0.001
##MIN_RMS=0.05
##NEW_AB=no
##NMAX=None
##NTYPES=None
##N_PEAKS=1
##ODDS=0.95
##ONLY_TYPE=no
##OUTPUT=LOS/SB2_B2004a_2.1z_Mags_500.bpz
##PHOTO_ERRORS=no
##PLOTS=no
##PRIOR=none
##PROBS=no
##PROBS2=no
##PROBS_LITE=LOS/SB2_B2004a_2.1z_Mags_500.probs
##P_MIN=0.01
##SED_DIR=/home/lidenscheng/MK_DirectSim/SEDs/
##SPECTRA=SB2.list
##VERBOSE=yes
##ZC=None
##ZMAX=10.0
##ZMIN=0.01
##ZP_OFFSETS=0.0
##Z_THR=0
##
##Column information
##
# 1 ID
# 2 Z_B
# 3 Z_B_MIN
# 4 Z_B_MAX
# 5 T_B
# 6 ODDS    
# 7 Z_ML
# 8 T_ML
# 9 CHI-SQUARED
# 10 M_0
##
    1 2.130 1.823  2.437 1.000 1.00000 2.130 1.000      4.870  23.000
    2 2.150 1.841  2.459 1.000 1.00000 2.150 1.000      2.537  23.000
    3 2.150 1.841  2.459 1.000 1.00000 2.150 1.000      3.352  23.000
    4 2.130 1.823  2.437 1.000 1.00000 2.130 1.000      3.663  23.000
    5 2.160 1.850  2.470 1.000 1.00000 2.160 1.000      3.620  23.000
    6 2.130 1.823  2.437 1.000 1.00000 2.130 1.000      4.256  23.000
    7 2.130 1.823  2.437 1.000 1.00000 2.130 1.000      3.715  23.000
    8 2.160 1.850  2.470 1.000 1.00000 2.160 1.000      3.376  23.000
    9 2.270 1.950  2.590 1.000 1.00000 2.260 1.000     26.397  23.000
   10 2.110 1.805  2.415 1.000 1.00000 2.120 1.000      9.925  23.000
   11 2.120 1.814  2.426 1.000 1.00000 2.130 1.000      6.033  23.000
   12 2.150 1.841  2.459 1.000 1.00000 2.150 1.000      3.209  23.000
   13 2.140 1.832  2.448 1.000 1.00000 2.150 1.000      2.174  23.000
   14 2.150 1.841  2.459 1.000 1.00000 2.150 1.000      2.289  23.000
   15 2.150 1.841  2.459 1.000 1.00000 2.150 1.000      2.321  23.000
   16 2.100 1.796  2.404 1.000 1.00000 2.100 1.000     13.197  23.000
   17 2.170 1.859  2.481 1.000 1.00000 2.170 1.000      2.096  23.000
   18 2.260 1.941  2.579 1.000 1.00000 2.260 1.000     12.285  23.000
   19 2.190 1.877  2.503 1.000 1.00000 2.190 1.000      3.200  23.000
   20 2.170 1.859  2.481 1.000 1.00000 2.160 1.000      1.862  23.000
   21 2.150 1.841  2.459 1.000 1.00000 2.150 1.000      2.067  23.000
   22 2.170 1.859  2.481 1.000 1.00000 2.170 1.000      1.873  23.000
   23 2.210 1.895  2.525 1.000 1.00000 2.210 1.000      8.725  23.000
   24 2.210 1.895  2.525 1.000 1.00000 2.210 1.000      6.743  23.000
   25 2.190 1.877  2.503 1.000 1.00000 2.190 1.000      3.503  23.000
   26 2.140 1.832  2.448 1.000 1.00000 2.150 1.000      2.103  23.000
   27 2.160 1.850  2.470 1.000 1.00000 2.160 1.000      3.337  23.000
   28 2.130 1.823  2.437 1.000 1.00000 2.130 1.000      3.715  23.000
   29 2.150 1.841  2.459 1.000 1.00000 2.150 1.000      2.595  23.000
   30 2.130 1.823  2.437 1.000 1.00000 2.130 1.000      3.545  23.000
   31 2.140 1.832  2.448 1.000 1.00000 2.150 1.000      2.180  23.000
   32 2.190 1.877  2.503 1.000 1.00000 2.190 1.000      4.310  23.000
   33 2.150 1.841  2.459 1.000 1.00000 2.150 1.000      2.281  23.000
   34 2.140 1.832  2.448 1.000 1.00000 2.130 1.000      2.657  23.000
   35 2.200 1.886  2.514 1.000 1.00000 2.200 1.000      5.001  23.000
   36 2.160 1.850  2.470 1.000 1.00000 2.160 1.000      5.021  23.000
   37 2.200 1.886  2.514 1.000 1.00000 2.210 1.000      6.439  23.000
   38 2.150 1.841  2.459 1.000 1.00000 2.150 1.000      2.050  23.000
   39 2.180 1.868  2.492 1.000 1.00000 2.180 1.000      2.665  23.000
   40 2.140 1.832  2.448 1.000 1.00000 2.140 1.000      2.436  23.000
   41 2.180 1.868  2.492 1.000 1.00000 2.180 1.000      2.807  23.000
   42 2.160 1.850  2.470 1.000 1.00000 2.160 1.000      2.169  23.000
   43 2.160 1.850  2.470 1.000 1.00000 2.160 1.000      4.113  23.000
   44 2.130 1.823  2.437 1.000 1.00000 2.130 1.000      2.958  23.000
   45 2.140 1.832  2.448 1.000 1.00000 2.150 1.000      2.383  23.000
   46 2.170 1.859  2.481 1.000 1.00000 2.160 1.000      1.847  23.000
   47 2.140 1.832  2.448 1.000 1.00000 2.140 1.000      2.579  23.000
   48 2.140 1.832  2.448 1.000 1.00000 2.150 1.000      2.192  23.000
   49 2.140 1.832  2.448 1.000 1.00000 2.150 1.000      2.072  23.000
   50 2.140 1.832  2.448 1.000 1.00000 2.140 1.000      2.476  23.000
   51 2.150 1.841  2.459 1.000 1.00000 2.150 1.000      2.747  23.000
   52 2.170 1.859  2.481 1.000 1.00000 2.170 1.000      2.035  23.000
   53 2.130 1.823  2.437 1.000 1.00000 2.130 1.000      3.993  23.000
   54 2.160 1.850  2.470 1.000 1.00000 2.160 1.000      3.770  23.000
   55 2.260 1.941  2.579 1.000 1.00000 2.260 1.000     16.097  23.000
   56 2.130 1.823  2.437 1.000 1.00000 2.130 1.000      3.545  23.000
   57 2.120 1.814  2.426 1.000 1.00000 2.130 1.000      5.944  23.000
   58 2.150 1.841  2.459 1.000 1.00000 2.150 1.000      3.262  23.000
   59 2.260 1.941  2.579 1.000 1.00000 2.260 1.000     14.064  23.000
   60 2.150 1.841  2.459 1.000 1.00000 2.150 1.000      4.746  23.000
   61 2.190 1.877  2.503 1.000 1.00000 2.190 1.000      3.553  23.000
   62 2.150 1.841  2.459 1.000 1.00000 2.150 1.000      2.694  23.000
   63 2.150 1.841  2.459 1.000 1.00000 2.150 1.000      5.019  23.000
   64 2.150 1.841  2.459 1.000 1.00000 2.150 1.000      2.537  23.000
   65 2.260 1.941  2.579 1.000 1.00000 2.260 1.000     12.772  23.000
   66 2.140 1.832  2.448 1.000 1.00000 2.140 1.000      2.570  23.000
   67 2.130 1.823  2.437 1.000 1.00000 2.130 1.000      4.451  23.000
   68 2.320 1.995  2.645 1.000 1.00000 2.340 1.000     50.586  23.000
   69 2.170 1.859  2.481 1.000 1.00000 2.160 1.000      1.891  23.000
   70 2.220 1.904  2.536 1.000 1.00000 2.260 1.000     11.871  23.000
   71 2.110 1.805  2.415 1.000 1.00000 2.100 1.000     10.377  23.000
   72 2.160 1.850  2.470 1.000 1.00000 2.160 1.000      4.938  23.000
   73 2.160 1.850  2.470 1.000 1.00000 2.160 1.000      4.161  23.000
   74 2.160 1.850  2.470 1.000 1.00000 2.160 1.000      4.161  23.000
   75 2.130 1.823  2.437 1.000 1.00000 2.130 1.000      4.320  23.000
   76 2.120 1.814  2.426 1.000 1.00000 2.120 1.000      7.057  23.000
   77 2.150 1.841  2.459 1.000 1.00000 2.150 1.000      3.684  23.000
   78 2.140 1.832  2.448 1.000 1.00000 2.150 1.000      2.055  23.000
   79 2.160 1.850  2.470 1.000 1.00000 2.160 1.000      2.400  23.000
   80 2.150 1.841  2.459 1.000 1.00000 2.150 1.000      3.623  23.000
   81 2.150 1.841  2.459 1.000 1.00000 2.150 1.000      4.265  23.000
   82 2.170 1.859  2.481 1.000 1.00000 2.160 1.000      1.842  23.000
   83 2.150 1.841  2.459 1.000 1.00000 2.150 1.000      2.888  23.000
   84 2.140 1.832  2.448 1.000 1.00000 2.130 1.000      2.755  23.000
   85 2.150 1.841  2.459 1.000 1.00000 2.150 1.000      3.523  23.000
   86 2.160 1.850  2.470 1.000 1.00000 2.160 1.000      4.234  23.000
   87 2.140 1.832  2.448 1.000 1.00000 2.140 1.000      2.469  23.000
   88 2.150 1.841  2.459 1.000 1.00000 2.150 1.000      2.383  23.000
   89 2.150 1.841  2.459 1.000 1.00000 2.150 1.000      2.092  23.000
   90 2.200 1.886  2.514 1.000 1.00000 2.200 1.000      4.486  23.000
   91 2.150 1.841  2.459 1.000 1.00000 2.150 1.000      4.720  23.000
   92 2.120 1.814  2.426 1.000 1.00000 2.120 1.000      7.245  23.000
   93 2.100 1.796  2.404 1.000 1.00000 2.100 1.000     12.467  23.000
   94 2.160 1.850  2.470 1.000 1.00000 2.160 1.000      3.260  23.000
   95 2.180 1.868  2.492 1.000 1.00000 2.180 1.000      2.560  23.000
   96 2.160 1.850  2.470 1.000 1.00000 2.160 1.000      2.412  23.000
   97 2.140 1.832  2.448 1.000 1.00000 2.140 1.000      2.570  23.000
   98 2.170 1.859  2.481 1.000 1.00000 2.170 1.000      2.139  23.000
   99 2.260 1.941  2.579 1.000 1.00000 2.260 1.000     17.973  23.000
  100 2.140 1.832  2.448 1.000 1.00000 2.150 1.000      2.186  23.000
  101 2.150 1.841  2.459 1.000 1.00000 2.150 1.000      4.362  23.000
  102 2.200 1.886  2.514 1.000 1.00000 2.210 1.000      6.306  23.000
  103 2.140 1.832  2.448 1.000 1.00000 2.150 1.000      2.103  23.000
  104 2.130 1.823  2.437 1.000 1.00000 2.130 1.000      4.277  23.000
  105 2.140 1.832  2.448 1.000 1.00000 2.130 1.000      2.678  23.000
  106 2.150 1.841  2.459 1.000 1.00000 2.150 1.000      4.289  23.000
  107 2.140 1.832  2.448 1.000 1.00000 2.140 1.000      2.449  23.000
  108 2.220 1.904  2.536 1.000 1.00000 2.210 1.000     11.117  23.000
  109 2.170 1.859  2.481 1.000 1.00000 2.160 1.000      1.844  23.000
  110 2.150 1.841  2.459 1.000 1.00000 2.150 1.000      2.483  23.000
  111 2.180 1.868  2.492 1.000 1.00000 2.180 1.000      2.427  23.000
  112 2.140 1.832  2.448 1.000 1.00000 2.140 1.000      2.521  23.000
  113 2.150 1.841  2.459 1.000 1.00000 2.150 1.000      2.103  23.000
  114 2.150 1.841  2.459 1.000 1.00000 2.150 1.000      2.119  23.000
  115 2.150 1.841  2.459 1.000 1.00000 2.150 1.000      3.408  23.000
  116 2.200 1.886  2.514 1.000 1.00000 2.200 1.000      4.843  23.000
  117 2.160 1.850  2.470 1.000 1.00000 2.160 1.000      3.705  23.000
  118 2.170 1.859  2.481 1.000 1.00000 2.170 1.000      1.848  23.000
  119 2.180 1.868  2.492 1.000 1.00000 2.170 1.000      2.275  23.000
  120 2.120 1.814  2.426 1.000 1.00000 2.130 1.000      5.742  23.000
  121 2.150 1.841  2.459 1.000 1.00000 2.150 1.000      2.994  23.000
  122 2.150 1.841  2.459 1.000 1.00000 2.150 1.000      3.563  23.000
  123 2.190 1.877  2.503 1.000 1.00000 2.190 1.000      3.692  23.000
  124 2.150 1.841  2.459 1.000 1.00000 2.150 1.000      3.107  23.000
  125 2.150 1.841  2.459 1.000 1.00000 2.150 1.000      2.888  23.000
  126 2.160 1.850  2.470 1.000 1.00000 2.160 1.000      3.113  23.000
  127 2.180 1.868  2.492 1.000 1.00000 2.180 1.000      2.702  23.000
  128 2.210 1.895  2.525 1.000 1.00000 2.210 1.000      8.089  23.000
  129 2.140 1.832  2.448 1.000 1.00000 2.130 1.000      2.854  23.000
  130 2.130 1.823  2.437 1.000 1.00000 2.130 1.000      3.954  23.000
  131 2.150 1.841  2.459 1.000 1.00000 2.150 1.000      3.810  23.000
  132 2.170 1.859  2.481 1.000 1.00000 2.160 1.000      1.842  23.000
  133 2.150 1.841  2.459 1.000 1.00000 2.150 1.000      2.297  23.000
  134 2.140 1.832  2.448 1.000 1.00000 2.150 1.000      2.048  23.000
  135 2.180 1.868  2.492 1.000 1.00000 2.180 1.000      2.465  23.000
  136 2.170 1.859  2.481 1.000 1.00000 2.160 1.000      1.847  23.000
  137 2.140 1.832  2.448 1.000 1.00000 2.130 1.000      2.798  23.000
  138 2.150 1.841  2.459 1.000 1.00000 2.150 1.000      2.054  23.000
  139 2.150 1.841  2.459 1.000 1.00000 2.150 1.000      2.273  23.000
  140 2.160 1.850  2.470 1.000 1.00000 2.160 1.000      2.287  23.000
  141 2.130 1.823  2.437 1.000 1.00000 2.130 1.000      3.750  23.000
  142 2.260 1.941  2.579 1.000 1.00000 2.260 1.000     11.898  23.000
  143 2.140 1.832  2.448 1.000 1.00000 2.130 1.000      2.730  23.000
  144 2.140 1.832  2.448 1.000 1.00000 2.150 1.000      2.198  23.000
  145 2.170 1.859  2.481 1.000 1.00000 2.170 1.000      2.105  23.000
  146 2.160 1.850  2.470 1.000 1.00000 2.160 1.000      4.042  23.000
  147 2.150 1.841  2.459 1.000 1.00000 2.150 1.000      2.077  23.000
  148 2.210 1.895  2.525 1.000 1.00000 2.210 1.000      7.124  23.000
  149 2.120 1.814  2.426 1.000 1.00000 2.120 1.000      8.908  23.000
  150 2.170 1.859  2.481 1.000 1.00000 2.160 1.000      1.856  23.000
  151 2.100 1.796  2.404 1.000 1.00000 2.100 1.000     14.428  23.000
  152 2.150 1.841  2.459 1.000 1.00000 2.150 1.000      3.919  23.000
  153 2.130 1.823  2.437 1.000 1.00000 2.130 1.000      3.149  23.000
  154 2.100 1.796  2.404 1.000 1.00000 2.100 1.000     15.346  23.000
  155 2.130 1.823  2.437 1.000 1.00000 2.130 1.000      3.271  23.000
  156 2.160 1.850  2.470 1.000 1.00000 2.160 1.000      4.090  23.000
  157 2.150 1.841  2.459 1.000 1.00000 2.150 1.000      4.462  23.000
  158 2.170 1.859  2.481 1.000 1.00000 2.170 1.000      1.838  23.000
  159 2.120 1.814  2.426 1.000 1.00000 2.120 1.000      7.438  23.000
  160 2.160 1.850  2.470 1.000 1.00000 2.160 1.000      3.395  23.000
  161 2.170 1.859  2.481 1.000 1.00000 2.160 1.000      1.860  23.000
  162 2.150 1.841  2.459 1.000 1.00000 2.150 1.000      2.048  23.000
  163 2.140 1.832  2.448 1.000 1.00000 2.150 1.000      2.075  23.000
  164 2.160 1.850  2.470 1.000 1.00000 2.160 1.000      4.510  23.000
  165 2.150 1.841  2.459 1.000 1.00000 2.150 1.000      2.347  23.000
  166 2.190 1.877  2.503 1.000 1.00000 2.190 1.000      3.587  23.000
  167 2.160 1.850  2.470 1.000 1.00000 2.160 1.000      4.433  23.000
  168 2.140 1.832  2.448 1.000 1.00000 2.150 1.000      2.119  23.000
  169 2.160 1.850  2.470 1.000 1.00000 2.160 1.000      3.298  23.000
  170 2.160 1.850  2.470 1.000 1.00000 2.160 1.000      3.837  23.000
  171 2.140 1.832  2.448 1.000 1.00000 2.130 1.000      2.826  23.000
  172 2.150 1.841  2.459 1.000 1.00000 2.150 1.000      4.123  23.000
  173 2.110 1.805  2.415 1.000 1.00000 2.120 1.000      9.406  23.000
  174 2.160 1.850  2.470 1.000 1.00000 2.160 1.000      2.448  23.000
  175 2.110 1.805  2.415 1.000 1.00000 2.100 1.000      9.994  23.000
  176 2.130 1.823  2.437 1.000 1.00000 2.130 1.000      3.841  23.000
  177 2.160 1.850  2.470 1.000 1.00000 2.160 1.000      2.109  23.000
  178 2.140 1.832  2.448 1.000 1.00000 2.130 1.000      2.671  23.000
  179 2.170 1.859  2.481 1.000 1.00000 2.160 1.000      1.845  23.000
  180 2.130 1.823  2.437 1.000 1.00000 2.130 1.000      5.250  23.000
  181 2.170 1.859  2.481 1.000 1.00000 2.160 1.000      1.906  23.000
  182 2.160 1.850  2.470 1.000 1.00000 2.160 1.000      2.388  23.000
  183 2.170 1.859  2.481 1.000 1.00000 2.160 1.000      1.953  23.000
  184 2.150 1.841  2.459 1.000 1.00000 2.150 1.000      2.305  23.000
  185 2.150 1.841  2.459 1.000 1.00000 2.150 1.000      4.854  23.000
  186 2.150 1.841  2.459 1.000 1.00000 2.150 1.000      2.330  23.000
  187 2.170 1.859  2.481 1.000 1.00000 2.160 1.000      1.851  23.000
  188 2.150 1.841  2.459 1.000 1.00000 2.150 1.000      4.362  23.000
  189 2.130 1.823  2.437 1.000 1.00000 2.130 1.000      2.915  23.000
  190 2.130 1.823  2.437 1.000 1.00000 2.130 1.000      3.513  23.000
  191 2.140 1.832  2.448 1.000 1.00000 2.140 1.000      2.491  23.000
  192 2.150 1.841  2.459 1.000 1.00000 2.150 1.000      2.157  23.000
  193 2.160 1.850  2.470 1.000 1.00000 2.160 1.000      2.941  23.000
  194 2.120 1.814  2.426 1.000 1.00000 2.120 1.000      7.735  23.000
  195 2.170 1.859  2.481 1.000 1.00000 2.170 1.000      2.028  23.000
  196 2.160 1.850  2.470 1.000 1.00000 2.160 1.000      3.395  23.000
  197 2.170 1.859  2.481 1.000 1.00000 2.170 1.000      2.042  23.000
  198 2.260 1.941  2.579 1.000 1.00000 2.260 1.000     13.993  23.000
  199 2.120 1.814  2.426 1.000 1.00000 2.130 1.000      5.658  23.000
  200 2.160 1.850  2.470 1.000 1.00000 2.160 1.000      3.167  23.000
  201 2.150 1.841  2.459 1.000 1.00000 2.150 1.000      2.903  23.000
  202 2.150 1.841  2.459 1.000 1.00000 2.150 1.000      2.669  23.000
  203 2.150 1.841  2.459 1.000 1.00000 2.150 1.000      4.031  23.000
  204 2.130 1.823  2.437 1.000 1.00000 2.130 1.000      3.162  23.000
  205 2.160 1.850  2.470 1.000 1.00000 2.160 1.000      3.415  23.000
  206 2.160 1.850  2.470 1.000 1.00000 2.160 1.000      2.277  23.000
  207 2.170 1.859  2.481 1.000 1.00000 2.170 1.000      2.042  23.000
  208 2.130 1.823  2.437 1.000 1.00000 2.130 1.000      5.519  23.000
  209 2.170 1.859  2.481 1.000 1.00000 2.160 1.000      1.878  23.000
  210 2.180 1.868  2.492 1.000 1.00000 2.180 1.000      2.677  23.000
  211 2.130 1.823  2.437 1.000 1.00000 2.130 1.000      3.768  23.000
  212 2.120 1.814  2.426 1.000 1.00000 2.120 1.000      9.097  23.000
  213 2.160 1.850  2.470 1.000 1.00000 2.160 1.000      3.455  23.000
  214 2.160 1.850  2.470 1.000 1.00000 2.160 1.000      2.565  23.000
  215 2.150 1.841  2.459 1.000 1.00000 2.150 1.000      4.963  23.000
  216 2.200 1.886  2.514 1.000 1.00000 2.200 1.000      5.311  23.000
  217 2.180 1.868  2.492 1.000 1.00000 2.180 1.000      2.877  23.000
  218 2.130 1.823  2.437 1.000 1.00000 2.130 1.000      2.925  23.000
  219 2.140 1.832  2.448 1.000 1.00000 2.150 1.000      2.356  23.000
  220 2.170 1.859  2.481 1.000 1.00000 2.160 1.000      1.869  23.000
  221 2.200 1.886  2.514 1.000 1.00000 2.200 1.000      4.506  23.000
  222 2.130 1.823  2.437 1.000 1.00000 2.130 1.000      4.563  23.000
  223 2.180 1.868  2.492 1.000 1.00000 2.180 1.000      2.390  23.000
  224 2.160 1.850  2.470 1.000 1.00000 2.160 1.000      2.448  23.000
  225 2.150 1.841  2.459 1.000 1.00000 2.150 1.000      3.941  23.000
  226 2.160 1.850  2.470 1.000 1.00000 2.160 1.000      2.376  23.000
  227 2.170 1.859  2.481 1.000 1.00000 2.160 1.000      2.019  23.000
  228 2.260 1.941  2.579 1.000 1.00000 2.260 1.000     11.886  23.000
  229 2.140 1.832  2.448 1.000 1.00000 2.130 1.000      2.678  23.000
  230 2.160 1.850  2.470 1.000 1.00000 2.150 1.000      5.160  23.000
  231 2.130 1.823  2.437 1.000 1.00000 2.130 1.000      3.715  23.000
  232 2.130 1.823  2.437 1.000 1.00000 2.130 1.000      3.954  23.000
  233 2.150 1.841  2.459 1.000 1.00000 2.150 1.000      2.356  23.000
  234 2.150 1.841  2.459 1.000 1.00000 2.150 1.000      3.042  23.000
  235 2.100 1.796  2.404 1.000 1.00000 2.100 1.000     13.916  23.000
  236 2.130 1.823  2.437 1.000 1.00000 2.130 1.000      3.136  23.000
  237 2.150 1.841  2.459 1.000 1.00000 2.150 1.000      2.049  23.000
  238 2.160 1.850  2.470 1.000 1.00000 2.160 1.000      3.641  23.000
  239 2.140 1.832  2.448 1.000 1.00000 2.150 1.000      2.065  23.000
  240 2.170 1.859  2.481 1.000 1.00000 2.160 1.000      1.872  23.000
  241 2.160 1.850  2.470 1.000 1.00000 2.160 1.000      2.751  23.000
  242 2.150 1.841  2.459 1.000 1.00000 2.150 1.000      3.010  23.000
  243 2.150 1.841  2.459 1.000 1.00000 2.150 1.000      3.705  23.000
  244 2.170 1.859  2.481 1.000 1.00000 2.160 1.000      1.847  23.000
  245 2.140 1.832  2.448 1.000 1.00000 2.150 1.000      2.192  23.000
  246 2.140 1.832  2.448 1.000 1.00000 2.130 1.000      2.723  23.000
  247 2.130 1.823  2.437 1.000 1.00000 2.130 1.000      4.256  23.000
  248 2.150 1.841  2.459 1.000 1.00000 2.150 1.000      3.026  23.000
  249 2.260 1.941  2.579 1.000 1.00000 2.260 1.000     12.003  23.000
  250 2.150 1.841  2.459 1.000 1.00000 2.150 1.000      2.483  23.000
  251 2.150 1.841  2.459 1.000 1.00000 2.150 1.000      2.918  23.000
  252 2.180 1.868  2.492 1.000 1.00000 2.180 1.000      2.364  23.000
  253 2.160 1.850  2.470 1.000 1.00000 2.160 1.000      2.512  23.000
  254 2.150 1.841  2.459 1.000 1.00000 2.150 1.000      2.052  23.000
  255 2.260 1.941  2.579 1.000 1.00000 2.260 1.000     12.179  23.000
  256 2.140 1.832  2.448 1.000 1.00000 2.130 1.000      2.807  23.000
  257 2.130 1.823  2.437 1.000 1.00000 2.130 1.000      4.153  23.000
  258 2.180 1.868  2.492 1.000 1.00000 2.180 1.000      3.042  23.000
  259 2.150 1.841  2.459 1.000 1.00000 2.150 1.000      2.106  23.000
  260 2.160 1.850  2.470 1.000 1.00000 2.160 1.000      2.634  23.000
  261 2.150 1.841  2.459 1.000 1.00000 2.150 1.000      2.472  23.000
  262 2.190 1.877  2.503 1.000 1.00000 2.190 1.000      4.117  23.000
  263 2.150 1.841  2.459 1.000 1.00000 2.150 1.000      4.800  23.000
  264 2.130 1.823  2.437 1.000 1.00000 2.130 1.000      4.194  23.000
  265 2.130 1.823  2.437 1.000 1.00000 2.130 1.000      3.513  23.000
  266 2.180 1.868  2.492 1.000 1.00000 2.180 1.000      2.436  23.000
  267 2.280 1.959  2.601 1.000 1.00000 2.280 1.000     39.635  23.000
  268 2.160 1.850  2.470 1.000 1.00000 2.160 1.000      2.766  23.000
  269 2.150 1.841  2.459 1.000 1.00000 2.150 1.000      4.031  23.000
  270 2.150 1.841  2.459 1.000 1.00000 2.150 1.000      3.543  23.000
  271 2.160 1.850  2.470 1.000 1.00000 2.160 1.000      2.298  23.000
  272 2.160 1.850  2.470 1.000 1.00000 2.160 1.000      2.461  23.000
  273 2.120 1.814  2.426 1.000 1.00000 2.120 1.000      7.182  23.000
  274 2.130 1.823  2.437 1.000 1.00000 2.130 1.000      4.496  23.000
  275 2.110 1.805  2.415 1.000 1.00000 2.120 1.000      9.524  23.000
  276 2.200 1.886  2.514 1.000 1.00000 2.200 1.000      4.546  23.000
  277 2.170 1.859  2.481 1.000 1.00000 2.160 1.000      2.033  23.000
  278 2.180 1.868  2.492 1.000 1.00000 2.180 1.000      2.891  23.000
  279 2.140 1.832  2.448 1.000 1.00000 2.150 1.000      2.259  23.000
  280 2.170 1.859  2.481 1.000 1.00000 2.170 1.000      2.035  23.000
  281 2.180 1.868  2.492 1.000 1.00000 2.180 1.000      2.877  23.000
  282 2.140 1.832  2.448 1.000 1.00000 2.130 1.000      2.625  23.000
  283 2.180 1.868  2.492 1.000 1.00000 2.180 1.000      2.527  23.000
  284 2.120 1.814  2.426 1.000 1.00000 2.120 1.000      6.843  23.000
  285 2.140 1.832  2.448 1.000 1.00000 2.150 1.000      2.089  23.000
  286 2.150 1.841  2.459 1.000 1.00000 2.150 1.000      2.392  23.000
  287 2.200 1.886  2.514 1.000 1.00000 2.200 1.000      4.446  23.000
  288 2.160 1.850  2.470 1.000 1.00000 2.160 1.000      2.424  23.000
  289 2.130 1.823  2.437 1.000 1.00000 2.130 1.000      3.465  23.000
  290 2.120 1.814  2.426 1.000 1.00000 2.120 1.000      7.088  23.000
  291 2.120 1.814  2.426 1.000 1.00000 2.120 1.000      7.769  23.000
  292 2.130 1.823  2.437 1.000 1.00000 2.130 1.000      2.936  23.000
  293 2.170 1.859  2.481 1.000 1.00000 2.170 1.000      1.855  23.000
  294 2.130 1.823  2.437 1.000 1.00000 2.130 1.000      2.884  23.000
  295 2.140 1.832  2.448 1.000 1.00000 2.150 1.000      2.244  23.000
  296 2.130 1.823  2.437 1.000 1.00000 2.130 1.000      3.002  23.000
  297 2.210 1.895  2.525 1.000 1.00000 2.210 1.000      8.544  23.000
  298 2.200 1.886  2.514 1.000 1.00000 2.200 1.000      5.671  23.000
  299 2.150 1.841  2.459 1.000 1.00000 2.150 1.000      2.669  23.000
  300 2.140 1.832  2.448 1.000 1.00000 2.150 1.000      2.138  23.000
  301 2.130 1.823  2.437 1.000 1.00000 2.130 1.000      3.388  23.000
  302 2.190 1.877  2.503 1.000 1.00000 2.190 1.000      3.214  23.000
  303 2.130 1.823  2.437 1.000 1.00000 2.130 1.000      3.098  23.000
  304 2.160 1.850  2.470 1.000 1.00000 2.160 1.000      4.774  23.000
  305 2.150 1.841  2.459 1.000 1.00000 2.150 1.000      2.266  23.000
  306 2.150 1.841  2.459 1.000 1.00000 2.150 1.000      3.563  23.000
  307 2.160 1.850  2.470 1.000 1.00000 2.160 1.000      3.641  23.000
  308 2.130 1.823  2.437 1.000 1.00000 2.130 1.000      3.162  23.000
  309 2.130 1.823  2.437 1.000 1.00000 2.130 1.000      3.285  23.000
  310 2.130 1.823  2.437 1.000 1.00000 2.130 1.000      4.895  23.000
  311 2.220 1.904  2.536 1.000 1.00000 2.210 1.000     10.940  23.000
  312 2.150 1.841  2.459 1.000 1.00000 2.150 1.000      2.137  23.000
  313 2.160 1.850  2.470 1.000 1.00000 2.160 1.000      4.667  23.000
  314 2.160 1.850  2.470 1.000 1.00000 2.160 1.000      2.781  23.000
  315 2.170 1.859  2.481 1.000 1.00000 2.160 1.000      1.843  23.000
  316 2.120 1.814  2.426 1.000 1.00000 2.120 1.000      8.539  23.000
  317 2.140 1.832  2.448 1.000 1.00000 2.150 1.000      2.048  23.000
  318 2.190 1.877  2.503 1.000 1.00000 2.190 1.000      3.376  23.000
  319 2.120 1.814  2.426 1.000 1.00000 2.120 1.000      8.539  23.000
  320 2.150 1.841  2.459 1.000 1.00000 2.150 1.000      4.054  23.000
  321 2.150 1.841  2.459 1.000 1.00000 2.150 1.000      2.289  23.000
  322 2.170 1.859  2.481 1.000 1.00000 2.170 1.000      1.844  23.000
  323 2.140 1.832  2.448 1.000 1.00000 2.150 1.000      2.204  23.000
  324 2.160 1.850  2.470 1.000 1.00000 2.160 1.000      3.260  23.000
  325 2.140 1.832  2.448 1.000 1.00000 2.150 1.000      2.077  23.000
  326 2.160 1.850  2.470 1.000 1.00000 2.160 1.000      4.234  23.000
  327 2.170 1.859  2.481 1.000 1.00000 2.160 1.000      1.938  23.000
  328 2.150 1.841  2.459 1.000 1.00000 2.150 1.000      2.173  23.000
  329 2.150 1.841  2.459 1.000 1.00000 2.150 1.000      2.057  23.000
  330 2.160 1.850  2.470 1.000 1.00000 2.160 1.000      2.473  23.000
  331 2.150 1.841  2.459 1.000 1.00000 2.150 1.000      4.773  23.000
  332 2.160 1.850  2.470 1.000 1.00000 2.160 1.000      2.677  23.000
  333 2.130 1.823  2.437 1.000 1.00000 2.130 1.000      3.954  23.000
  334 2.170 1.859  2.481 1.000 1.00000 2.170 1.000      2.008  23.000
  335 2.160 1.850  2.470 1.000 1.00000 2.160 1.000      5.106  23.000
  336 2.130 1.823  2.437 1.000 1.00000 2.130 1.000      5.303  23.000
  337 2.140 1.832  2.448 1.000 1.00000 2.150 1.000      2.198  23.000
  338 2.130 1.823  2.437 1.000 1.00000 2.130 1.000      4.092  23.000
  339 2.150 1.841  2.459 1.000 1.00000 2.150 1.000      3.789  23.000
  340 2.150 1.841  2.459 1.000 1.00000 2.150 1.000      2.103  23.000
  341 2.130 1.823  2.437 1.000 1.00000 2.130 1.000      5.602  23.000
  342 2.140 1.832  2.448 1.000 1.00000 2.150 1.000      2.096  23.000
  343 2.160 1.850  2.470 1.000 1.00000 2.160 1.000      2.620  23.000
  344 2.150 1.841  2.459 1.000 1.00000 2.150 1.000      3.227  23.000
  345 2.160 1.850  2.470 1.000 1.00000 2.160 1.000      2.461  23.000
  346 2.220 1.904  2.536 1.000 1.00000 2.210 1.000     11.387  23.000
  347 2.160 1.850  2.470 1.000 1.00000 2.160 1.000      2.634  23.000
  348 2.160 1.850  2.470 1.000 1.00000 2.160 1.000      3.317  23.000
  349 2.140 1.832  2.448 1.000 1.00000 2.130 1.000      2.826  23.000
  350 2.130 1.823  2.437 1.000 1.00000 2.130 1.000      5.198  23.000
  351 2.170 1.859  2.481 1.000 1.00000 2.170 1.000      2.008  23.000
  352 2.150 1.841  2.459 1.000 1.00000 2.150 1.000      4.935  23.000
  353 2.120 1.814  2.426 1.000 1.00000 2.120 1.000      7.119  23.000
  354 2.110 1.805  2.415 1.000 1.00000 2.100 1.000     10.811  23.000
  355 2.160 1.850  2.470 1.000 1.00000 2.160 1.000      2.908  23.000
  356 2.160 1.850  2.470 1.000 1.00000 2.160 1.000      3.927  23.000
  357 2.150 1.841  2.459 1.000 1.00000 2.150 1.000      2.515  23.000
  358 2.140 1.832  2.448 1.000 1.00000 2.150 1.000      2.055  23.000
  359 2.200 1.886  2.514 1.000 1.00000 2.200 1.000      4.649  23.000
  360 2.150 1.841  2.459 1.000 1.00000 2.150 1.000      4.054  23.000
  361 2.160 1.850  2.470 1.000 1.00000 2.160 1.000      3.748  23.000
  362 2.150 1.841  2.459 1.000 1.00000 2.150 1.000      3.389  23.000
  363 2.120 1.814  2.426 1.000 1.00000 2.120 1.000      7.341  23.000
  364 2.140 1.832  2.448 1.000 1.00000 2.150 1.000      2.373  23.000
  365 2.150 1.841  2.459 1.000 1.00000 2.150 1.000      3.010  23.000
  366 2.170 1.859  2.481 1.000 1.00000 2.170 1.000      2.035  23.000
  367 2.140 1.832  2.448 1.000 1.00000 2.140 1.000      2.506  23.000
  368 2.150 1.841  2.459 1.000 1.00000 2.150 1.000      4.563  23.000
  369 2.140 1.832  2.448 1.000 1.00000 2.140 1.000      2.456  23.000
  370 2.130 1.823  2.437 1.000 1.00000 2.130 1.000      3.715  23.000
  371 2.160 1.850  2.470 1.000 1.00000 2.160 1.000      2.246  23.000
  372 2.150 1.841  2.459 1.000 1.00000 2.150 1.000      4.641  23.000
  373 2.120 1.814  2.426 1.000 1.00000 2.130 1.000      6.460  23.000
  374 2.170 1.859  2.481 1.000 1.00000 2.160 1.000      1.842  23.000
  375 2.120 1.814  2.426 1.000 1.00000 2.130 1.000      6.336  23.000
  376 2.140 1.832  2.448 1.000 1.00000 2.150 1.000      2.067  23.000
  377 2.150 1.841  2.459 1.000 1.00000 2.150 1.000      2.057  23.000
  378 2.130 1.823  2.437 1.000 1.00000 2.130 1.000      2.991  23.000
  379 2.100 1.796  2.404 1.000 1.00000 2.100 1.000     16.672  23.000
  380 2.190 1.877  2.503 1.000 1.00000 2.190 1.000      4.202  23.000
  381 2.150 1.841  2.459 1.000 1.00000 2.150 1.000      2.631  23.000
  382 2.150 1.841  2.459 1.000 1.00000 2.150 1.000      2.948  23.000
  383 2.130 1.823  2.437 1.000 1.00000 2.130 1.000      4.385  23.000
  384 2.140 1.832  2.448 1.000 1.00000 2.130 1.000      2.707  23.000
  385 2.140 1.832  2.448 1.000 1.00000 2.150 1.000      2.063  23.000
  386 2.160 1.850  2.470 1.000 1.00000 2.160 1.000      3.973  23.000
  387 2.150 1.841  2.459 1.000 1.00000 2.150 1.000      4.538  23.000
  388 2.150 1.841  2.459 1.000 1.00000 2.150 1.000      2.237  23.000
  389 2.190 1.877  2.503 1.000 1.00000 2.190 1.000      3.783  23.000
  390 2.160 1.850  2.470 1.000 1.00000 2.160 1.000      4.720  23.000
  391 2.140 1.832  2.448 1.000 1.00000 2.150 1.000      2.075  23.000
  392 2.170 1.859  2.481 1.000 1.00000 2.160 1.000      1.842  23.000
  393 2.130 1.823  2.437 1.000 1.00000 2.130 1.000      4.132  23.000
  394 2.120 1.814  2.426 1.000 1.00000 2.120 1.000      6.934  23.000
  395 2.110 1.805  2.415 1.000 1.00000 2.100 1.000     10.960  23.000
  396 2.160 1.850  2.470 1.000 1.00000 2.160 1.000      3.557  23.000
  397 2.140 1.832  2.448 1.000 1.00000 2.140 1.000      2.606  23.000
  398 2.170 1.859  2.481 1.000 1.00000 2.170 1.000      1.870  23.000
  399 2.150 1.841  2.459 1.000 1.00000 2.150 1.000      2.053  23.000
  400 2.200 1.886  2.514 1.000 1.00000 2.200 1.000      5.671  23.000
  401 2.170 1.859  2.481 1.000 1.00000 2.170 1.000      1.910  23.000
  402 2.170 1.859  2.481 1.000 1.00000 2.170 1.000      1.901  23.000
  403 2.150 1.841  2.459 1.000 1.00000 2.150 1.000      3.810  23.000
  404 2.150 1.841  2.459 1.000 1.00000 2.150 1.000      2.052  23.000
  405 2.150 1.841  2.459 1.000 1.00000 2.150 1.000      2.472  23.000
  406 2.210 1.895  2.525 1.000 1.00000 2.210 1.000      8.508  23.000
  407 2.130 1.823  2.437 1.000 1.00000 2.130 1.000      5.356  23.000
  408 2.150 1.841  2.459 1.000 1.00000 2.150 1.000      2.082  23.000
  409 2.190 1.877  2.503 1.000 1.00000 2.190 1.000      3.878  23.000
  410 2.130 1.823  2.437 1.000 1.00000 2.130 1.000      4.235  23.000
  411 2.150 1.841  2.459 1.000 1.00000 2.150 1.000      3.543  23.000
  412 2.130 1.823  2.437 1.000 1.00000 2.130 1.000      3.373  23.000
  413 2.170 1.859  2.481 1.000 1.00000 2.160 1.000      1.842  23.000
  414 2.180 1.868  2.492 1.000 1.00000 2.180 1.000      2.373  23.000
  415 2.150 1.841  2.459 1.000 1.00000 2.150 1.000      2.383  23.000
  416 2.150 1.841  2.459 1.000 1.00000 2.150 1.000      4.338  23.000
  417 2.130 1.823  2.437 1.000 1.00000 2.130 1.000      5.250  23.000
  418 2.130 1.823  2.437 1.000 1.00000 2.130 1.000      3.086  23.000
  419 2.190 1.877  2.503 1.000 1.00000 2.190 1.000      3.710  23.000
  420 2.150 1.841  2.459 1.000 1.00000 2.150 1.000      4.437  23.000
  421 2.170 1.859  2.481 1.000 1.00000 2.160 1.000      1.845  23.000
  422 2.160 1.850  2.470 1.000 1.00000 2.160 1.000      2.388  23.000
  423 2.120 1.814  2.426 1.000 1.00000 2.120 1.000      7.870  23.000
  424 2.150 1.841  2.459 1.000 1.00000 2.150 1.000      3.684  23.000
  425 2.150 1.841  2.459 1.000 1.00000 2.150 1.000      2.619  23.000
  426 2.170 1.859  2.481 1.000 1.00000 2.170 1.000      1.923  23.000
  427 2.130 1.823  2.437 1.000 1.00000 2.130 1.000      3.878  23.000
  428 2.150 1.841  2.459 1.000 1.00000 2.150 1.000      2.069  23.000
  429 2.130 1.823  2.437 1.000 1.00000 2.130 1.000      4.429  23.000
  430 2.120 1.814  2.426 1.000 1.00000 2.120 1.000      6.490  23.000
  431 2.140 1.832  2.448 1.000 1.00000 2.150 1.000      2.059  23.000
  432 2.200 1.886  2.514 1.000 1.00000 2.200 1.000      5.488  23.000
  433 2.150 1.841  2.459 1.000 1.00000 2.150 1.000      2.504  23.000
  434 2.140 1.832  2.448 1.000 1.00000 2.150 1.000      2.251  23.000
  435 2.160 1.850  2.470 1.000 1.00000 2.160 1.000      2.197  23.000
  436 2.140 1.832  2.448 1.000 1.00000 2.150 1.000      2.289  23.000
  437 2.150 1.841  2.459 1.000 1.00000 2.150 1.000      2.052  23.000
  438 2.150 1.841  2.459 1.000 1.00000 2.150 1.000      3.446  23.000
  439 2.150 1.841  2.459 1.000 1.00000 2.150 1.000      2.607  23.000
  440 2.170 1.859  2.481 1.000 1.00000 2.160 1.000      1.852  23.000
  441 2.130 1.823  2.437 1.000 1.00000 2.130 1.000      3.086  23.000
  442 2.130 1.823  2.437 1.000 1.00000 2.130 1.000      4.822  23.000
  443 2.160 1.850  2.470 1.000 1.00000 2.160 1.000      2.448  23.000
  444 2.140 1.832  2.448 1.000 1.00000 2.140 1.000      2.570  23.000
  445 2.140 1.832  2.448 1.000 1.00000 2.150 1.000      2.305  23.000
  446 2.150 1.841  2.459 1.000 1.00000 2.150 1.000      4.641  23.000
  447 2.140 1.832  2.448 1.000 1.00000 2.150 1.000      2.244  23.000
  448 2.180 1.868  2.492 1.000 1.00000 2.170 1.000      2.166  23.000
  449 2.130 1.823  2.437 1.000 1.00000 2.130 1.000      2.925  23.000
  450 2.150 1.841  2.459 1.000 1.00000 2.150 1.000      2.462  23.000
  451 2.160 1.850  2.470 1.000 1.00000 2.150 1.000      5.131  23.000
  452 2.260 1.941  2.579 1.000 1.00000 2.260 1.000     12.431  23.000
  453 2.200 1.886  2.514 1.000 1.00000 2.210 1.000      6.125  23.000
  454 2.160 1.850  2.470 1.000 1.00000 2.160 1.000      2.077  23.000
  455 2.140 1.832  2.448 1.000 1.00000 2.150 1.000      2.138  23.000
  456 2.170 1.859  2.481 1.000 1.00000 2.170 1.000      1.890  23.000
  457 2.180 1.868  2.492 1.000 1.00000 2.180 1.000      2.506  23.000
  458 2.140 1.832  2.448 1.000 1.00000 2.150 1.000      2.251  23.000
  459 2.110 1.805  2.415 1.000 1.00000 2.100 1.000     10.271  23.000
  460 2.160 1.850  2.470 1.000 1.00000 2.160 1.000      3.113  23.000
  461 2.150 1.841  2.459 1.000 1.00000 2.150 1.000      4.827  23.000
  462 2.160 1.850  2.470 1.000 1.00000 2.160 1.000      3.727  23.000
  463 2.150 1.841  2.459 1.000 1.00000 2.150 1.000      2.526  23.000
  464 2.140 1.832  2.448 1.000 1.00000 2.150 1.000      2.251  23.000
  465 2.130 1.823  2.437 1.000 1.00000 2.130 1.000      4.032  23.000
  466 2.200 1.886  2.514 1.000 1.00000 2.200 1.000      4.843  23.000
  467 2.160 1.850  2.470 1.000 1.00000 2.160 1.000      5.135  23.000
  468 2.190 1.877  2.503 1.000 1.00000 2.190 1.000      3.536  23.000
  469 2.150 1.841  2.459 1.000 1.00000 2.150 1.000      2.844  23.000
  470 2.160 1.850  2.470 1.000 1.00000 2.160 1.000      4.938  23.000
  471 2.150 1.841  2.459 1.000 1.00000 2.150 1.000      4.720  23.000
  472 2.160 1.850  2.470 1.000 1.00000 2.160 1.000      2.084  23.000
  473 2.130 1.823  2.437 1.000 1.00000 2.130 1.000      2.936  23.000
  474 2.170 1.859  2.481 1.000 1.00000 2.170 1.000      2.028  23.000
  475 2.150 1.841  2.459 1.000 1.00000 2.150 1.000      2.431  23.000
  476 2.150 1.841  2.459 1.000 1.00000 2.150 1.000      4.362  23.000
  477 2.130 1.823  2.437 1.000 1.00000 2.130 1.000      4.451  23.000
  478 2.100 1.796  2.404 1.000 1.00000 2.100 1.000     12.342  23.000
  479 2.160 1.850  2.470 1.000 1.00000 2.160 1.000      2.486  23.000
  480 2.180 1.868  2.492 1.000 1.00000 2.180 1.000      2.427  23.000
  481 2.140 1.832  2.448 1.000 1.00000 2.140 1.000      2.562  23.000
  482 2.150 1.841  2.459 1.000 1.00000 2.150 1.000      2.056  23.000
  483 2.200 1.886  2.514 1.000 1.00000 2.200 1.000      5.238  23.000
  484 2.150 1.841  2.459 1.000 1.00000 2.150 1.000      3.042  23.000
  485 2.160 1.850  2.470 1.000 1.00000 2.160 1.000      2.169  23.000
  486 2.120 1.814  2.426 1.000 1.00000 2.120 1.000      8.983  23.000
  487 2.130 1.823  2.437 1.000 1.00000 2.130 1.000      5.356  23.000
  488 2.200 1.886  2.514 1.000 1.00000 2.200 1.000      4.587  23.000
  489 2.200 1.886  2.514 1.000 1.00000 2.200 1.000      5.189  23.000
  490 2.150 1.841  2.459 1.000 1.00000 2.150 1.000      2.053  23.000
  491 2.160 1.850  2.470 1.000 1.00000 2.160 1.000      4.283  23.000
  492 2.120 1.814  2.426 1.000 1.00000 2.120 1.000      7.088  23.000
  493 2.150 1.841  2.459 1.000 1.00000 2.150 1.000      2.504  23.000
  494 2.160 1.850  2.470 1.000 1.00000 2.160 1.000      3.113  23.000
  495 2.180 1.868  2.492 1.000 1.00000 2.170 1.000      2.166  23.000
  496 2.160 1.850  2.470 1.000 1.00000 2.160 1.000      2.812  23.000
  497 2.140 1.832  2.448 1.000 1.00000 2.150 1.000      2.111  23.000
  498 2.140 1.832  2.448 1.000 1.00000 2.150 1.000      2.128  23.000
  499 2.150 1.841  2.459 1.000 1.00000 2.150 1.000      2.347  23.000
  500 2.120 1.814  2.426 1.000 1.00000 2.130 1.000      5.799  23.000
