## File LOS/SB2_B2004a_2.9z_Mags_200.bpz  Fri Aug 12 23:37:12 2016
##
##Parameters used to run BPZ:
##
##AB_DIR=/home/lidenscheng/bpz-1.99.3//AB/
##ADD_CONTINUOUS_PROB=None
##ADD_SPEC_PROB=None
##CHECK=LOS/SB2_B2004a_2.9z_Mags_200.flux_comparison
##COLOR=no
##COLUMNS=losNoErrors.columns
##CONVOLVE_P=yes
##DELTA_M_0=0.0
##DZ=0.01
##EXCLUDE=none
##FC=None
##FILTER_DIR=/home/lidenscheng/MK_DirectSim/filters/
##GET_Z=yes
##INPUT=LOS/SB2_B2004a_2.9z_Mags_200.txt
##INTERACTIVE=yes
##INTERP=0
##MADAU=no
##MAG=yes
##MEAN_IGM=yes
##MERGE_PEAKS=no
##MIN_MAGERR=0.001
##MIN_RMS=0.05
##NEW_AB=no
##NMAX=None
##NTYPES=None
##N_PEAKS=1
##ODDS=0.95
##ONLY_TYPE=no
##OUTPUT=LOS/SB2_B2004a_2.9z_Mags_200.bpz
##PHOTO_ERRORS=no
##PLOTS=no
##PRIOR=none
##PROBS=no
##PROBS2=no
##PROBS_LITE=LOS/SB2_B2004a_2.9z_Mags_200.probs
##P_MIN=0.01
##SED_DIR=/home/lidenscheng/MK_DirectSim/SEDs/
##SPECTRA=SB2.list
##VERBOSE=yes
##ZC=None
##ZMAX=10.0
##ZMIN=0.01
##ZP_OFFSETS=0.0
##Z_THR=0
##
##Column information
##
# 1 ID
# 2 Z_B
# 3 Z_B_MIN
# 4 Z_B_MAX
# 5 T_B
# 6 ODDS    
# 7 Z_ML
# 8 T_ML
# 9 CHI-SQUARED
# 10 M_0
##
    1 3.000 2.608  3.392 1.000 1.00000 3.000 1.000     36.205  23.000
    2 2.970 2.581  3.359 1.000 1.00000 2.970 1.000     24.193  23.000
    3 3.040 2.644  3.436 1.000 1.00000 3.040 1.000     23.886  23.000
    4 2.950 2.563  3.337 1.000 1.00000 2.950 1.000     12.434  23.000
    5 2.990 2.599  3.381 1.000 1.00000 2.990 1.000     17.881  23.000
    6 2.990 2.599  3.381 1.000 1.00000 2.990 1.000     13.585  23.000
    7 3.000 2.608  3.392 1.000 1.00000 3.000 1.000     19.441  23.000
    8 2.950 2.563  3.337 1.000 1.00000 2.950 1.000     10.987  23.000
    9 2.980 2.590  3.370 1.000 1.00000 2.980 1.000     22.852  23.000
   10 3.020 2.626  3.414 1.000 1.00000 3.020 1.000     46.860  23.000
   11 3.010 2.617  3.403 1.000 1.00000 3.010 1.000      8.669  23.000
   12 2.960 2.572  3.348 1.000 1.00000 2.960 1.000     24.454  23.000
   13 2.940 2.554  3.326 1.000 1.00000 2.940 1.000     10.603  23.000
   14 2.980 2.590  3.370 1.000 1.00000 2.980 1.000     31.649  23.000
   15 3.010 2.617  3.403 1.000 1.00000 3.010 1.000     11.564  23.000
   16 3.010 2.617  3.403 1.000 1.00000 3.010 1.000     35.088  23.000
   17 3.030 2.635  3.425 1.000 1.00000 3.030 1.000     48.679  23.000
   18 2.950 2.563  3.337 1.000 1.00000 2.950 1.000      3.450  23.000
   19 2.960 2.572  3.348 1.000 1.00000 2.960 1.000      3.516  23.000
   20 2.970 2.581  3.359 1.000 1.00000 2.970 1.000     13.944  23.000
   21 3.010 2.617  3.403 1.000 1.00000 3.010 1.000     19.387  23.000
   22 2.990 2.599  3.381 1.000 1.00000 2.990 1.000      7.328  23.000
   23 3.000 2.608  3.392 1.000 1.00000 3.000 1.000     14.418  23.000
   24 3.070 2.671  3.469 1.000 1.00000 3.070 1.000     33.645  23.000
   25 3.010 2.617  3.403 1.000 1.00000 3.010 1.000     10.040  23.000
   26 2.980 2.590  3.370 1.000 1.00000 2.980 1.000     10.971  23.000
   27 3.040 2.644  3.436 1.000 1.00000 3.040 1.000     29.164  23.000
   28 3.000 2.608  3.392 1.000 1.00000 3.000 1.000     16.387  23.000
   29 2.950 2.563  3.337 1.000 1.00000 2.950 1.000      2.504  23.000
   30 2.970 2.581  3.359 1.000 1.00000 2.970 1.000      9.464  23.000
   31 2.980 2.590  3.370 1.000 1.00000 2.980 1.000     21.532  23.000
   32 2.950 2.563  3.337 1.000 1.00000 2.950 1.000      5.331  23.000
   33 3.020 2.626  3.414 1.000 1.00000 3.020 1.000     13.620  23.000
   34 2.960 2.572  3.348 1.000 1.00000 2.960 1.000     15.286  23.000
   35 3.000 2.608  3.392 1.000 1.00000 3.000 1.000      5.815  23.000
   36 2.980 2.590  3.370 1.000 1.00000 2.980 1.000     16.220  23.000
   37 2.990 2.599  3.381 1.000 1.00000 2.990 1.000     22.129  23.000
   38 3.030 2.635  3.425 1.000 1.00000 3.030 1.000     26.356  23.000
   39 3.000 2.608  3.392 1.000 1.00000 3.000 1.000     20.576  23.000
   40 2.970 2.581  3.359 1.000 1.00000 2.970 1.000     15.384  23.000
   41 2.960 2.572  3.348 1.000 1.00000 2.960 1.000     16.953  23.000
   42 3.000 2.608  3.392 1.000 1.00000 3.000 1.000     14.673  23.000
   43 3.000 2.608  3.392 1.000 1.00000 3.000 1.000     42.076  23.000
   44 3.000 2.608  3.392 1.000 1.00000 3.000 1.000     19.525  23.000
   45 2.970 2.581  3.359 1.000 1.00000 2.970 1.000      4.640  23.000
   46 3.050 2.653  3.447 1.000 1.00000 3.050 1.000     48.258  23.000
   47 2.990 2.599  3.381 1.000 1.00000 2.990 1.000      6.263  23.000
   48 3.000 2.608  3.392 1.000 1.00000 3.000 1.000     11.665  23.000
   49 3.040 2.644  3.436 1.000 1.00000 3.040 1.000     55.268  23.000
   50 2.960 2.572  3.348 1.000 1.00000 2.960 1.000      7.304  23.000
   51 2.970 2.581  3.359 1.000 1.00000 2.970 1.000     14.233  23.000
   52 2.960 2.572  3.348 1.000 1.00000 2.960 1.000     10.572  23.000
   53 3.010 2.617  3.403 1.000 1.00000 3.010 1.000     13.777  23.000
   54 3.000 2.608  3.392 1.000 1.00000 3.000 1.000      8.229  23.000
   55 2.960 2.572  3.348 1.000 1.00000 2.960 1.000     12.987  23.000
   56 3.000 2.608  3.392 1.000 1.00000 3.000 1.000     25.276  23.000
   57 3.000 2.608  3.392 1.000 1.00000 3.000 1.000     10.945  23.000
   58 2.960 2.572  3.348 1.000 1.00000 2.960 1.000     16.184  23.000
   59 3.060 2.662  3.458 1.000 1.00000 3.060 1.000     38.012  23.000
   60 2.970 2.581  3.359 1.000 1.00000 2.970 1.000     32.851  23.000
   61 2.970 2.581  3.359 1.000 1.00000 2.970 1.000     21.985  23.000
   62 2.950 2.563  3.337 1.000 1.00000 2.950 1.000      3.099  23.000
   63 2.960 2.572  3.348 1.000 1.00000 2.960 1.000     17.822  23.000
   64 3.020 2.626  3.414 1.000 1.00000 3.020 1.000     15.046  23.000
   65 2.960 2.572  3.348 1.000 1.00000 2.960 1.000     27.977  23.000
   66 3.000 2.608  3.392 1.000 1.00000 3.000 1.000     15.311  23.000
   67 2.980 2.590  3.370 1.000 1.00000 2.980 1.000     42.439  23.000
   68 2.950 2.563  3.337 1.000 1.00000 2.950 1.000     27.702  23.000
   69 2.980 2.590  3.370 1.000 1.00000 2.980 1.000     11.360  23.000
   70 2.980 2.590  3.370 1.000 1.00000 2.980 1.000     18.416  23.000
   71 2.970 2.581  3.359 1.000 1.00000 2.970 1.000     18.957  23.000
   72 2.960 2.572  3.348 1.000 1.00000 2.960 1.000     24.270  23.000
   73 2.950 2.563  3.337 1.000 1.00000 2.950 1.000     16.738  23.000
   74 3.000 2.608  3.392 1.000 1.00000 3.000 1.000     23.162  23.000
   75 2.980 2.590  3.370 1.000 1.00000 2.980 1.000     31.480  23.000
   76 3.030 2.635  3.425 1.000 1.00000 3.030 1.000     19.366  23.000
   77 2.980 2.590  3.370 1.000 1.00000 2.980 1.000      4.961  23.000
   78 2.980 2.590  3.370 1.000 1.00000 2.980 1.000      7.775  23.000
   79 3.000 2.608  3.392 1.000 1.00000 3.000 1.000     12.725  23.000
   80 2.980 2.590  3.370 1.000 1.00000 2.980 1.000      5.994  23.000
   81 2.970 2.581  3.359 1.000 1.00000 2.970 1.000     42.998  23.000
   82 3.070 2.671  3.469 1.000 1.00000 3.070 1.000     26.862  23.000
   83 3.000 2.608  3.392 1.000 1.00000 3.000 1.000     12.912  23.000
   84 2.990 2.599  3.381 1.000 1.00000 2.990 1.000      6.865  23.000
   85 2.960 2.572  3.348 1.000 1.00000 2.960 1.000     23.684  23.000
   86 2.990 2.599  3.381 1.000 1.00000 2.990 1.000     11.851  23.000
   87 2.990 2.599  3.381 1.000 1.00000 2.990 1.000     18.955  23.000
   88 3.000 2.608  3.392 1.000 1.00000 3.000 1.000     51.191  23.000
   89 2.970 2.581  3.359 1.000 1.00000 2.970 1.000      3.935  23.000
   90 3.030 2.635  3.425 1.000 1.00000 3.030 1.000     21.710  23.000
   91 3.010 2.617  3.403 1.000 1.00000 3.010 1.000     22.313  23.000
   92 2.950 2.563  3.337 1.000 1.00000 2.950 1.000     15.765  23.000
   93 3.010 2.617  3.403 1.000 1.00000 3.010 1.000     15.051  23.000
   94 2.990 2.599  3.381 1.000 1.00000 2.990 1.000     31.206  23.000
   95 3.000 2.608  3.392 1.000 1.00000 3.000 1.000     15.990  23.000
   96 2.990 2.599  3.381 1.000 1.00000 2.990 1.000     15.904  23.000
   97 2.950 2.563  3.337 1.000 1.00000 2.950 1.000     11.231  23.000
   98 3.010 2.617  3.403 1.000 1.00000 3.010 1.000     17.185  23.000
   99 3.010 2.617  3.403 1.000 1.00000 3.010 1.000     34.212  23.000
  100 3.030 2.635  3.425 1.000 1.00000 3.030 1.000     16.510  23.000
  101 2.990 2.599  3.381 1.000 1.00000 2.990 1.000     12.482  23.000
  102 3.000 2.608  3.392 1.000 1.00000 3.000 1.000     18.077  23.000
  103 2.950 2.563  3.337 1.000 1.00000 2.950 1.000      7.156  23.000
  104 2.960 2.572  3.348 1.000 1.00000 2.960 1.000     13.737  23.000
  105 2.940 2.554  3.326 1.000 1.00000 2.940 1.000      3.294  23.000
  106 2.960 2.572  3.348 1.000 1.00000 2.960 1.000     21.556  23.000
  107 2.980 2.590  3.370 1.000 1.00000 2.980 1.000     21.204  23.000
  108 3.020 2.626  3.414 1.000 1.00000 3.020 1.000     24.129  23.000
  109 2.970 2.581  3.359 1.000 1.00000 2.970 1.000      9.622  23.000
  110 3.010 2.617  3.403 1.000 1.00000 3.010 1.000      7.292  23.000
  111 2.950 2.563  3.337 1.000 1.00000 2.950 1.000      7.128  23.000
  112 2.980 2.590  3.370 1.000 1.00000 2.980 1.000     45.862  23.000
  113 2.980 2.590  3.370 1.000 1.00000 2.980 1.000     13.506  23.000
  114 2.960 2.572  3.348 1.000 1.00000 2.960 1.000     15.242  23.000
  115 2.980 2.590  3.370 1.000 1.00000 2.980 1.000     18.488  23.000
  116 3.030 2.635  3.425 1.000 1.00000 3.030 1.000     10.504  23.000
  117 3.010 2.617  3.403 1.000 1.00000 3.010 1.000     25.705  23.000
  118 3.020 2.626  3.414 1.000 1.00000 3.020 1.000     15.965  23.000
  119 3.010 2.617  3.403 1.000 1.00000 3.010 1.000     12.533  23.000
  120 3.070 2.671  3.469 1.000 1.00000 3.070 1.000     63.320  23.000
  121 3.010 2.617  3.403 1.000 1.00000 3.010 1.000     26.256  23.000
  122 2.980 2.590  3.370 1.000 1.00000 2.980 1.000     40.596  23.000
  123 2.970 2.581  3.359 1.000 1.00000 2.970 1.000     11.645  23.000
  124 3.040 2.644  3.436 1.000 1.00000 3.040 1.000     29.173  23.000
  125 3.050 2.653  3.447 1.000 1.00000 3.050 1.000     32.771  23.000
  126 2.980 2.590  3.370 1.000 1.00000 2.980 1.000     32.482  23.000
  127 3.100 2.698  3.502 1.000 1.00000 3.100 1.000     71.690  23.000
  128 3.000 2.608  3.392 1.000 1.00000 3.000 1.000     26.662  23.000
  129 2.950 2.563  3.337 1.000 1.00000 2.950 1.000      9.408  23.000
  130 2.990 2.599  3.381 1.000 1.00000 2.990 1.000      7.681  23.000
  131 2.960 2.572  3.348 1.000 1.00000 2.960 1.000     31.866  23.000
  132 2.980 2.590  3.370 1.000 1.00000 2.980 1.000     25.056  23.000
  133 2.990 2.599  3.381 1.000 1.00000 2.990 1.000     41.406  23.000
  134 2.960 2.572  3.348 1.000 1.00000 2.960 1.000      8.045  23.000
  135 3.060 2.662  3.458 1.000 1.00000 3.060 1.000     36.088  23.000
  136 2.970 2.581  3.359 1.000 1.00000 2.970 1.000     26.715  23.000
  137 2.950 2.563  3.337 1.000 1.00000 2.950 1.000     10.809  23.000
  138 2.970 2.581  3.359 1.000 1.00000 2.970 1.000     10.799  23.000
  139 2.990 2.599  3.381 1.000 1.00000 2.990 1.000     31.021  23.000
  140 3.000 2.608  3.392 1.000 1.00000 3.000 1.000     25.709  23.000
  141 2.960 2.572  3.348 1.000 1.00000 2.960 1.000     16.376  23.000
  142 3.000 2.608  3.392 1.000 1.00000 3.000 1.000     24.284  23.000
  143 3.000 2.608  3.392 1.000 1.00000 3.000 1.000      7.858  23.000
  144 2.960 2.572  3.348 1.000 1.00000 2.960 1.000     14.624  23.000
  145 3.030 2.635  3.425 1.000 1.00000 3.030 1.000     18.452  23.000
  146 2.980 2.590  3.370 1.000 1.00000 2.980 1.000     16.879  23.000
  147 2.950 2.563  3.337 1.000 1.00000 2.950 1.000      5.436  23.000
  148 3.000 2.608  3.392 1.000 1.00000 3.000 1.000     30.809  23.000
  149 2.990 2.599  3.381 1.000 1.00000 2.990 1.000     11.838  23.000
  150 2.980 2.590  3.370 1.000 1.00000 2.980 1.000      5.427  23.000
  151 2.970 2.581  3.359 1.000 1.00000 2.970 1.000     29.270  23.000
  152 2.990 2.599  3.381 1.000 1.00000 2.990 1.000     15.054  23.000
  153 2.960 2.572  3.348 1.000 1.00000 2.960 1.000      3.232  23.000
  154 2.970 2.581  3.359 1.000 1.00000 2.970 1.000      7.938  23.000
  155 2.960 2.572  3.348 1.000 1.00000 2.960 1.000     36.361  23.000
  156 2.970 2.581  3.359 1.000 1.00000 2.970 1.000     10.048  23.000
  157 2.970 2.581  3.359 1.000 1.00000 2.970 1.000     32.350  23.000
  158 3.000 2.608  3.392 1.000 1.00000 3.000 1.000     43.523  23.000
  159 3.020 2.626  3.414 1.000 1.00000 3.020 1.000     43.233  23.000
  160 3.000 2.608  3.392 1.000 1.00000 3.000 1.000     16.040  23.000
  161 3.010 2.617  3.403 1.000 1.00000 3.010 1.000     10.046  23.000
  162 3.000 2.608  3.392 1.000 1.00000 3.000 1.000     35.257  23.000
  163 3.000 2.608  3.392 1.000 1.00000 3.000 1.000     10.317  23.000
  164 3.040 2.644  3.436 1.000 1.00000 3.040 1.000     32.709  23.000
  165 3.000 2.608  3.392 1.000 1.00000 3.000 1.000     11.618  23.000
  166 2.950 2.563  3.337 1.000 1.00000 2.950 1.000     10.333  23.000
  167 3.010 2.617  3.403 1.000 1.00000 3.010 1.000      7.878  23.000
  168 2.980 2.590  3.370 1.000 1.00000 2.980 1.000     13.231  23.000
  169 2.960 2.572  3.348 1.000 1.00000 2.960 1.000     13.787  23.000
  170 2.980 2.590  3.370 1.000 1.00000 2.980 1.000      9.179  23.000
  171 2.990 2.599  3.381 1.000 1.00000 2.990 1.000     57.353  23.000
  172 2.950 2.563  3.337 1.000 1.00000 2.950 1.000     15.380  23.000
  173 3.010 2.617  3.403 1.000 1.00000 3.010 1.000     22.513  23.000
  174 2.950 2.563  3.337 1.000 1.00000 2.950 1.000      9.823  23.000
  175 2.980 2.590  3.370 1.000 1.00000 2.980 1.000      6.936  23.000
  176 2.990 2.599  3.381 1.000 1.00000 2.990 1.000      5.780  23.000
  177 3.010 2.617  3.403 1.000 1.00000 3.010 1.000     14.486  23.000
  178 3.000 2.608  3.392 1.000 1.00000 3.000 1.000      9.733  23.000
  179 2.970 2.581  3.359 1.000 1.00000 2.970 1.000      8.464  23.000
  180 2.960 2.572  3.348 1.000 1.00000 2.960 1.000      6.737  23.000
  181 3.020 2.626  3.414 1.000 1.00000 3.020 1.000     18.651  23.000
  182 2.970 2.581  3.359 1.000 1.00000 2.970 1.000     21.378  23.000
  183 2.990 2.599  3.381 1.000 1.00000 2.990 1.000     21.481  23.000
  184 2.980 2.590  3.370 1.000 1.00000 2.980 1.000      4.001  23.000
  185 3.020 2.626  3.414 1.000 1.00000 3.020 1.000     11.877  23.000
  186 3.000 2.608  3.392 1.000 1.00000 3.000 1.000     23.861  23.000
  187 3.010 2.617  3.403 1.000 1.00000 3.010 1.000     14.982  23.000
  188 2.960 2.572  3.348 1.000 1.00000 2.960 1.000      3.920  23.000
  189 2.960 2.572  3.348 1.000 1.00000 2.960 1.000      2.538  23.000
  190 2.980 2.590  3.370 1.000 1.00000 2.980 1.000      6.686  23.000
  191 2.980 2.590  3.370 1.000 1.00000 2.980 1.000     12.976  23.000
  192 2.970 2.581  3.359 1.000 1.00000 2.970 1.000     22.171  23.000
  193 2.960 2.572  3.348 1.000 1.00000 2.960 1.000     18.905  23.000
  194 2.970 2.581  3.359 1.000 1.00000 2.970 1.000     18.283  23.000
  195 2.970 2.581  3.359 1.000 1.00000 2.970 1.000      6.747  23.000
  196 3.040 2.644  3.436 1.000 1.00000 3.040 1.000     40.997  23.000
  197 2.960 2.572  3.348 1.000 1.00000 2.960 1.000      5.747  23.000
  198 3.010 2.617  3.403 1.000 1.00000 3.010 1.000     20.468  23.000
  199 3.000 2.608  3.392 1.000 1.00000 3.000 1.000     18.994  23.000
  200 2.970 2.581  3.359 1.000 1.00000 2.970 1.000      9.369  23.000
