## File LOS/SB2_B2004a_2.1z_Mags_1700.bpz  Sat Aug 13 01:36:50 2016
##
##Parameters used to run BPZ:
##
##AB_DIR=/home/lidenscheng/bpz-1.99.3//AB/
##ADD_CONTINUOUS_PROB=None
##ADD_SPEC_PROB=None
##CHECK=LOS/SB2_B2004a_2.1z_Mags_1700.flux_comparison
##COLOR=no
##COLUMNS=losNoErrors.columns
##CONVOLVE_P=yes
##DELTA_M_0=0.0
##DZ=0.01
##EXCLUDE=none
##FC=None
##FILTER_DIR=/home/lidenscheng/MK_DirectSim/filters/
##GET_Z=yes
##INPUT=LOS/SB2_B2004a_2.1z_Mags_1700.txt
##INTERACTIVE=yes
##INTERP=0
##MADAU=no
##MAG=yes
##MEAN_IGM=yes
##MERGE_PEAKS=no
##MIN_MAGERR=0.001
##MIN_RMS=0.05
##NEW_AB=no
##NMAX=None
##NTYPES=None
##N_PEAKS=1
##ODDS=0.95
##ONLY_TYPE=no
##OUTPUT=LOS/SB2_B2004a_2.1z_Mags_1700.bpz
##PHOTO_ERRORS=no
##PLOTS=no
##PRIOR=none
##PROBS=no
##PROBS2=no
##PROBS_LITE=LOS/SB2_B2004a_2.1z_Mags_1700.probs
##P_MIN=0.01
##SED_DIR=/home/lidenscheng/MK_DirectSim/SEDs/
##SPECTRA=SB2.list
##VERBOSE=yes
##ZC=None
##ZMAX=10.0
##ZMIN=0.01
##ZP_OFFSETS=0.0
##Z_THR=0
##
##Column information
##
# 1 ID
# 2 Z_B
# 3 Z_B_MIN
# 4 Z_B_MAX
# 5 T_B
# 6 ODDS    
# 7 Z_ML
# 8 T_ML
# 9 CHI-SQUARED
# 10 M_0
##
    1 2.130 1.823  2.437 1.000 1.00000 2.130 1.000      4.870  23.000
    2 2.150 1.841  2.459 1.000 1.00000 2.150 1.000      2.537  23.000
    3 2.150 1.841  2.459 1.000 1.00000 2.150 1.000      3.352  23.000
    4 2.130 1.823  2.437 1.000 1.00000 2.130 1.000      3.663  23.000
    5 2.160 1.850  2.470 1.000 1.00000 2.160 1.000      3.620  23.000
    6 2.130 1.823  2.437 1.000 1.00000 2.130 1.000      4.256  23.000
    7 2.130 1.823  2.437 1.000 1.00000 2.130 1.000      3.715  23.000
    8 2.160 1.850  2.470 1.000 1.00000 2.160 1.000      3.376  23.000
    9 2.270 1.950  2.590 1.000 1.00000 2.260 1.000     26.397  23.000
   10 2.110 1.805  2.415 1.000 1.00000 2.120 1.000      9.925  23.000
   11 2.120 1.814  2.426 1.000 1.00000 2.130 1.000      6.033  23.000
   12 2.150 1.841  2.459 1.000 1.00000 2.150 1.000      3.209  23.000
   13 2.140 1.832  2.448 1.000 1.00000 2.150 1.000      2.174  23.000
   14 2.150 1.841  2.459 1.000 1.00000 2.150 1.000      2.289  23.000
   15 2.150 1.841  2.459 1.000 1.00000 2.150 1.000      2.321  23.000
   16 2.100 1.796  2.404 1.000 1.00000 2.100 1.000     13.197  23.000
   17 2.170 1.859  2.481 1.000 1.00000 2.170 1.000      2.096  23.000
   18 2.260 1.941  2.579 1.000 1.00000 2.260 1.000     12.285  23.000
   19 2.190 1.877  2.503 1.000 1.00000 2.190 1.000      3.200  23.000
   20 2.170 1.859  2.481 1.000 1.00000 2.160 1.000      1.862  23.000
   21 2.150 1.841  2.459 1.000 1.00000 2.150 1.000      2.067  23.000
   22 2.170 1.859  2.481 1.000 1.00000 2.170 1.000      1.873  23.000
   23 2.210 1.895  2.525 1.000 1.00000 2.210 1.000      8.725  23.000
   24 2.210 1.895  2.525 1.000 1.00000 2.210 1.000      6.743  23.000
   25 2.190 1.877  2.503 1.000 1.00000 2.190 1.000      3.503  23.000
   26 2.140 1.832  2.448 1.000 1.00000 2.150 1.000      2.103  23.000
   27 2.160 1.850  2.470 1.000 1.00000 2.160 1.000      3.337  23.000
   28 2.130 1.823  2.437 1.000 1.00000 2.130 1.000      3.715  23.000
   29 2.150 1.841  2.459 1.000 1.00000 2.150 1.000      2.595  23.000
   30 2.130 1.823  2.437 1.000 1.00000 2.130 1.000      3.545  23.000
   31 2.140 1.832  2.448 1.000 1.00000 2.150 1.000      2.180  23.000
   32 2.190 1.877  2.503 1.000 1.00000 2.190 1.000      4.310  23.000
   33 2.150 1.841  2.459 1.000 1.00000 2.150 1.000      2.281  23.000
   34 2.140 1.832  2.448 1.000 1.00000 2.130 1.000      2.657  23.000
   35 2.200 1.886  2.514 1.000 1.00000 2.200 1.000      5.001  23.000
   36 2.160 1.850  2.470 1.000 1.00000 2.160 1.000      5.021  23.000
   37 2.200 1.886  2.514 1.000 1.00000 2.210 1.000      6.439  23.000
   38 2.150 1.841  2.459 1.000 1.00000 2.150 1.000      2.050  23.000
   39 2.180 1.868  2.492 1.000 1.00000 2.180 1.000      2.665  23.000
   40 2.140 1.832  2.448 1.000 1.00000 2.140 1.000      2.436  23.000
   41 2.180 1.868  2.492 1.000 1.00000 2.180 1.000      2.807  23.000
   42 2.160 1.850  2.470 1.000 1.00000 2.160 1.000      2.169  23.000
   43 2.160 1.850  2.470 1.000 1.00000 2.160 1.000      4.113  23.000
   44 2.130 1.823  2.437 1.000 1.00000 2.130 1.000      2.958  23.000
   45 2.140 1.832  2.448 1.000 1.00000 2.150 1.000      2.383  23.000
   46 2.170 1.859  2.481 1.000 1.00000 2.160 1.000      1.847  23.000
   47 2.140 1.832  2.448 1.000 1.00000 2.140 1.000      2.579  23.000
   48 2.140 1.832  2.448 1.000 1.00000 2.150 1.000      2.192  23.000
   49 2.140 1.832  2.448 1.000 1.00000 2.150 1.000      2.072  23.000
   50 2.140 1.832  2.448 1.000 1.00000 2.140 1.000      2.476  23.000
   51 2.150 1.841  2.459 1.000 1.00000 2.150 1.000      2.747  23.000
   52 2.170 1.859  2.481 1.000 1.00000 2.170 1.000      2.035  23.000
   53 2.130 1.823  2.437 1.000 1.00000 2.130 1.000      3.993  23.000
   54 2.160 1.850  2.470 1.000 1.00000 2.160 1.000      3.770  23.000
   55 2.260 1.941  2.579 1.000 1.00000 2.260 1.000     16.097  23.000
   56 2.130 1.823  2.437 1.000 1.00000 2.130 1.000      3.545  23.000
   57 2.120 1.814  2.426 1.000 1.00000 2.130 1.000      5.944  23.000
   58 2.150 1.841  2.459 1.000 1.00000 2.150 1.000      3.262  23.000
   59 2.260 1.941  2.579 1.000 1.00000 2.260 1.000     14.064  23.000
   60 2.150 1.841  2.459 1.000 1.00000 2.150 1.000      4.746  23.000
   61 2.190 1.877  2.503 1.000 1.00000 2.190 1.000      3.553  23.000
   62 2.150 1.841  2.459 1.000 1.00000 2.150 1.000      2.694  23.000
   63 2.150 1.841  2.459 1.000 1.00000 2.150 1.000      5.019  23.000
   64 2.150 1.841  2.459 1.000 1.00000 2.150 1.000      2.537  23.000
   65 2.260 1.941  2.579 1.000 1.00000 2.260 1.000     12.772  23.000
   66 2.140 1.832  2.448 1.000 1.00000 2.140 1.000      2.570  23.000
   67 2.130 1.823  2.437 1.000 1.00000 2.130 1.000      4.451  23.000
   68 2.320 1.995  2.645 1.000 1.00000 2.340 1.000     50.586  23.000
   69 2.170 1.859  2.481 1.000 1.00000 2.160 1.000      1.891  23.000
   70 2.220 1.904  2.536 1.000 1.00000 2.260 1.000     11.871  23.000
   71 2.110 1.805  2.415 1.000 1.00000 2.100 1.000     10.377  23.000
   72 2.160 1.850  2.470 1.000 1.00000 2.160 1.000      4.938  23.000
   73 2.160 1.850  2.470 1.000 1.00000 2.160 1.000      4.161  23.000
   74 2.160 1.850  2.470 1.000 1.00000 2.160 1.000      4.161  23.000
   75 2.130 1.823  2.437 1.000 1.00000 2.130 1.000      4.320  23.000
   76 2.120 1.814  2.426 1.000 1.00000 2.120 1.000      7.057  23.000
   77 2.150 1.841  2.459 1.000 1.00000 2.150 1.000      3.684  23.000
   78 2.140 1.832  2.448 1.000 1.00000 2.150 1.000      2.055  23.000
   79 2.160 1.850  2.470 1.000 1.00000 2.160 1.000      2.400  23.000
   80 2.150 1.841  2.459 1.000 1.00000 2.150 1.000      3.623  23.000
   81 2.150 1.841  2.459 1.000 1.00000 2.150 1.000      4.265  23.000
   82 2.170 1.859  2.481 1.000 1.00000 2.160 1.000      1.842  23.000
   83 2.150 1.841  2.459 1.000 1.00000 2.150 1.000      2.888  23.000
   84 2.140 1.832  2.448 1.000 1.00000 2.130 1.000      2.755  23.000
   85 2.150 1.841  2.459 1.000 1.00000 2.150 1.000      3.523  23.000
   86 2.160 1.850  2.470 1.000 1.00000 2.160 1.000      4.234  23.000
   87 2.140 1.832  2.448 1.000 1.00000 2.140 1.000      2.469  23.000
   88 2.150 1.841  2.459 1.000 1.00000 2.150 1.000      2.383  23.000
   89 2.150 1.841  2.459 1.000 1.00000 2.150 1.000      2.092  23.000
   90 2.200 1.886  2.514 1.000 1.00000 2.200 1.000      4.486  23.000
   91 2.150 1.841  2.459 1.000 1.00000 2.150 1.000      4.720  23.000
   92 2.120 1.814  2.426 1.000 1.00000 2.120 1.000      7.245  23.000
   93 2.100 1.796  2.404 1.000 1.00000 2.100 1.000     12.467  23.000
   94 2.160 1.850  2.470 1.000 1.00000 2.160 1.000      3.260  23.000
   95 2.180 1.868  2.492 1.000 1.00000 2.180 1.000      2.560  23.000
   96 2.160 1.850  2.470 1.000 1.00000 2.160 1.000      2.412  23.000
   97 2.140 1.832  2.448 1.000 1.00000 2.140 1.000      2.570  23.000
   98 2.170 1.859  2.481 1.000 1.00000 2.170 1.000      2.139  23.000
   99 2.260 1.941  2.579 1.000 1.00000 2.260 1.000     17.973  23.000
  100 2.140 1.832  2.448 1.000 1.00000 2.150 1.000      2.186  23.000
  101 2.150 1.841  2.459 1.000 1.00000 2.150 1.000      4.362  23.000
  102 2.200 1.886  2.514 1.000 1.00000 2.210 1.000      6.306  23.000
  103 2.140 1.832  2.448 1.000 1.00000 2.150 1.000      2.103  23.000
  104 2.130 1.823  2.437 1.000 1.00000 2.130 1.000      4.277  23.000
  105 2.140 1.832  2.448 1.000 1.00000 2.130 1.000      2.678  23.000
  106 2.150 1.841  2.459 1.000 1.00000 2.150 1.000      4.289  23.000
  107 2.140 1.832  2.448 1.000 1.00000 2.140 1.000      2.449  23.000
  108 2.220 1.904  2.536 1.000 1.00000 2.210 1.000     11.117  23.000
  109 2.170 1.859  2.481 1.000 1.00000 2.160 1.000      1.844  23.000
  110 2.150 1.841  2.459 1.000 1.00000 2.150 1.000      2.483  23.000
  111 2.180 1.868  2.492 1.000 1.00000 2.180 1.000      2.427  23.000
  112 2.140 1.832  2.448 1.000 1.00000 2.140 1.000      2.521  23.000
  113 2.150 1.841  2.459 1.000 1.00000 2.150 1.000      2.103  23.000
  114 2.150 1.841  2.459 1.000 1.00000 2.150 1.000      2.119  23.000
  115 2.150 1.841  2.459 1.000 1.00000 2.150 1.000      3.408  23.000
  116 2.200 1.886  2.514 1.000 1.00000 2.200 1.000      4.843  23.000
  117 2.160 1.850  2.470 1.000 1.00000 2.160 1.000      3.705  23.000
  118 2.170 1.859  2.481 1.000 1.00000 2.170 1.000      1.848  23.000
  119 2.180 1.868  2.492 1.000 1.00000 2.170 1.000      2.275  23.000
  120 2.120 1.814  2.426 1.000 1.00000 2.130 1.000      5.742  23.000
  121 2.150 1.841  2.459 1.000 1.00000 2.150 1.000      2.994  23.000
  122 2.150 1.841  2.459 1.000 1.00000 2.150 1.000      3.563  23.000
  123 2.190 1.877  2.503 1.000 1.00000 2.190 1.000      3.692  23.000
  124 2.150 1.841  2.459 1.000 1.00000 2.150 1.000      3.107  23.000
  125 2.150 1.841  2.459 1.000 1.00000 2.150 1.000      2.888  23.000
  126 2.160 1.850  2.470 1.000 1.00000 2.160 1.000      3.113  23.000
  127 2.180 1.868  2.492 1.000 1.00000 2.180 1.000      2.702  23.000
  128 2.210 1.895  2.525 1.000 1.00000 2.210 1.000      8.089  23.000
  129 2.140 1.832  2.448 1.000 1.00000 2.130 1.000      2.854  23.000
  130 2.130 1.823  2.437 1.000 1.00000 2.130 1.000      3.954  23.000
  131 2.150 1.841  2.459 1.000 1.00000 2.150 1.000      3.810  23.000
  132 2.170 1.859  2.481 1.000 1.00000 2.160 1.000      1.842  23.000
  133 2.150 1.841  2.459 1.000 1.00000 2.150 1.000      2.297  23.000
  134 2.140 1.832  2.448 1.000 1.00000 2.150 1.000      2.048  23.000
  135 2.180 1.868  2.492 1.000 1.00000 2.180 1.000      2.465  23.000
  136 2.170 1.859  2.481 1.000 1.00000 2.160 1.000      1.847  23.000
  137 2.140 1.832  2.448 1.000 1.00000 2.130 1.000      2.798  23.000
  138 2.150 1.841  2.459 1.000 1.00000 2.150 1.000      2.054  23.000
  139 2.150 1.841  2.459 1.000 1.00000 2.150 1.000      2.273  23.000
  140 2.160 1.850  2.470 1.000 1.00000 2.160 1.000      2.287  23.000
  141 2.130 1.823  2.437 1.000 1.00000 2.130 1.000      3.750  23.000
  142 2.260 1.941  2.579 1.000 1.00000 2.260 1.000     11.898  23.000
  143 2.140 1.832  2.448 1.000 1.00000 2.130 1.000      2.730  23.000
  144 2.140 1.832  2.448 1.000 1.00000 2.150 1.000      2.198  23.000
  145 2.170 1.859  2.481 1.000 1.00000 2.170 1.000      2.105  23.000
  146 2.160 1.850  2.470 1.000 1.00000 2.160 1.000      4.042  23.000
  147 2.150 1.841  2.459 1.000 1.00000 2.150 1.000      2.077  23.000
  148 2.210 1.895  2.525 1.000 1.00000 2.210 1.000      7.124  23.000
  149 2.120 1.814  2.426 1.000 1.00000 2.120 1.000      8.908  23.000
  150 2.170 1.859  2.481 1.000 1.00000 2.160 1.000      1.856  23.000
  151 2.100 1.796  2.404 1.000 1.00000 2.100 1.000     14.428  23.000
  152 2.150 1.841  2.459 1.000 1.00000 2.150 1.000      3.919  23.000
  153 2.130 1.823  2.437 1.000 1.00000 2.130 1.000      3.149  23.000
  154 2.100 1.796  2.404 1.000 1.00000 2.100 1.000     15.346  23.000
  155 2.130 1.823  2.437 1.000 1.00000 2.130 1.000      3.271  23.000
  156 2.160 1.850  2.470 1.000 1.00000 2.160 1.000      4.090  23.000
  157 2.150 1.841  2.459 1.000 1.00000 2.150 1.000      4.462  23.000
  158 2.170 1.859  2.481 1.000 1.00000 2.170 1.000      1.838  23.000
  159 2.120 1.814  2.426 1.000 1.00000 2.120 1.000      7.438  23.000
  160 2.160 1.850  2.470 1.000 1.00000 2.160 1.000      3.395  23.000
  161 2.170 1.859  2.481 1.000 1.00000 2.160 1.000      1.860  23.000
  162 2.150 1.841  2.459 1.000 1.00000 2.150 1.000      2.048  23.000
  163 2.140 1.832  2.448 1.000 1.00000 2.150 1.000      2.075  23.000
  164 2.160 1.850  2.470 1.000 1.00000 2.160 1.000      4.510  23.000
  165 2.150 1.841  2.459 1.000 1.00000 2.150 1.000      2.347  23.000
  166 2.190 1.877  2.503 1.000 1.00000 2.190 1.000      3.587  23.000
  167 2.160 1.850  2.470 1.000 1.00000 2.160 1.000      4.433  23.000
  168 2.140 1.832  2.448 1.000 1.00000 2.150 1.000      2.119  23.000
  169 2.160 1.850  2.470 1.000 1.00000 2.160 1.000      3.298  23.000
  170 2.160 1.850  2.470 1.000 1.00000 2.160 1.000      3.837  23.000
  171 2.140 1.832  2.448 1.000 1.00000 2.130 1.000      2.826  23.000
  172 2.150 1.841  2.459 1.000 1.00000 2.150 1.000      4.123  23.000
  173 2.110 1.805  2.415 1.000 1.00000 2.120 1.000      9.406  23.000
  174 2.160 1.850  2.470 1.000 1.00000 2.160 1.000      2.448  23.000
  175 2.110 1.805  2.415 1.000 1.00000 2.100 1.000      9.994  23.000
  176 2.130 1.823  2.437 1.000 1.00000 2.130 1.000      3.841  23.000
  177 2.160 1.850  2.470 1.000 1.00000 2.160 1.000      2.109  23.000
  178 2.140 1.832  2.448 1.000 1.00000 2.130 1.000      2.671  23.000
  179 2.170 1.859  2.481 1.000 1.00000 2.160 1.000      1.845  23.000
  180 2.130 1.823  2.437 1.000 1.00000 2.130 1.000      5.250  23.000
  181 2.170 1.859  2.481 1.000 1.00000 2.160 1.000      1.906  23.000
  182 2.160 1.850  2.470 1.000 1.00000 2.160 1.000      2.388  23.000
  183 2.170 1.859  2.481 1.000 1.00000 2.160 1.000      1.953  23.000
  184 2.150 1.841  2.459 1.000 1.00000 2.150 1.000      2.305  23.000
  185 2.150 1.841  2.459 1.000 1.00000 2.150 1.000      4.854  23.000
  186 2.150 1.841  2.459 1.000 1.00000 2.150 1.000      2.330  23.000
  187 2.170 1.859  2.481 1.000 1.00000 2.160 1.000      1.851  23.000
  188 2.150 1.841  2.459 1.000 1.00000 2.150 1.000      4.362  23.000
  189 2.130 1.823  2.437 1.000 1.00000 2.130 1.000      2.915  23.000
  190 2.130 1.823  2.437 1.000 1.00000 2.130 1.000      3.513  23.000
  191 2.140 1.832  2.448 1.000 1.00000 2.140 1.000      2.491  23.000
  192 2.150 1.841  2.459 1.000 1.00000 2.150 1.000      2.157  23.000
  193 2.160 1.850  2.470 1.000 1.00000 2.160 1.000      2.941  23.000
  194 2.120 1.814  2.426 1.000 1.00000 2.120 1.000      7.735  23.000
  195 2.170 1.859  2.481 1.000 1.00000 2.170 1.000      2.028  23.000
  196 2.160 1.850  2.470 1.000 1.00000 2.160 1.000      3.395  23.000
  197 2.170 1.859  2.481 1.000 1.00000 2.170 1.000      2.042  23.000
  198 2.260 1.941  2.579 1.000 1.00000 2.260 1.000     13.993  23.000
  199 2.120 1.814  2.426 1.000 1.00000 2.130 1.000      5.658  23.000
  200 2.160 1.850  2.470 1.000 1.00000 2.160 1.000      3.167  23.000
  201 2.150 1.841  2.459 1.000 1.00000 2.150 1.000      2.903  23.000
  202 2.150 1.841  2.459 1.000 1.00000 2.150 1.000      2.669  23.000
  203 2.150 1.841  2.459 1.000 1.00000 2.150 1.000      4.031  23.000
  204 2.130 1.823  2.437 1.000 1.00000 2.130 1.000      3.162  23.000
  205 2.160 1.850  2.470 1.000 1.00000 2.160 1.000      3.415  23.000
  206 2.160 1.850  2.470 1.000 1.00000 2.160 1.000      2.277  23.000
  207 2.170 1.859  2.481 1.000 1.00000 2.170 1.000      2.042  23.000
  208 2.130 1.823  2.437 1.000 1.00000 2.130 1.000      5.519  23.000
  209 2.170 1.859  2.481 1.000 1.00000 2.160 1.000      1.878  23.000
  210 2.180 1.868  2.492 1.000 1.00000 2.180 1.000      2.677  23.000
  211 2.130 1.823  2.437 1.000 1.00000 2.130 1.000      3.768  23.000
  212 2.120 1.814  2.426 1.000 1.00000 2.120 1.000      9.097  23.000
  213 2.160 1.850  2.470 1.000 1.00000 2.160 1.000      3.455  23.000
  214 2.160 1.850  2.470 1.000 1.00000 2.160 1.000      2.565  23.000
  215 2.150 1.841  2.459 1.000 1.00000 2.150 1.000      4.963  23.000
  216 2.200 1.886  2.514 1.000 1.00000 2.200 1.000      5.311  23.000
  217 2.180 1.868  2.492 1.000 1.00000 2.180 1.000      2.877  23.000
  218 2.130 1.823  2.437 1.000 1.00000 2.130 1.000      2.925  23.000
  219 2.140 1.832  2.448 1.000 1.00000 2.150 1.000      2.356  23.000
  220 2.170 1.859  2.481 1.000 1.00000 2.160 1.000      1.869  23.000
  221 2.200 1.886  2.514 1.000 1.00000 2.200 1.000      4.506  23.000
  222 2.130 1.823  2.437 1.000 1.00000 2.130 1.000      4.563  23.000
  223 2.180 1.868  2.492 1.000 1.00000 2.180 1.000      2.390  23.000
  224 2.160 1.850  2.470 1.000 1.00000 2.160 1.000      2.448  23.000
  225 2.150 1.841  2.459 1.000 1.00000 2.150 1.000      3.941  23.000
  226 2.160 1.850  2.470 1.000 1.00000 2.160 1.000      2.376  23.000
  227 2.170 1.859  2.481 1.000 1.00000 2.160 1.000      2.019  23.000
  228 2.260 1.941  2.579 1.000 1.00000 2.260 1.000     11.886  23.000
  229 2.140 1.832  2.448 1.000 1.00000 2.130 1.000      2.678  23.000
  230 2.160 1.850  2.470 1.000 1.00000 2.150 1.000      5.160  23.000
  231 2.130 1.823  2.437 1.000 1.00000 2.130 1.000      3.715  23.000
  232 2.130 1.823  2.437 1.000 1.00000 2.130 1.000      3.954  23.000
  233 2.150 1.841  2.459 1.000 1.00000 2.150 1.000      2.356  23.000
  234 2.150 1.841  2.459 1.000 1.00000 2.150 1.000      3.042  23.000
  235 2.100 1.796  2.404 1.000 1.00000 2.100 1.000     13.916  23.000
  236 2.130 1.823  2.437 1.000 1.00000 2.130 1.000      3.136  23.000
  237 2.150 1.841  2.459 1.000 1.00000 2.150 1.000      2.049  23.000
  238 2.160 1.850  2.470 1.000 1.00000 2.160 1.000      3.641  23.000
  239 2.140 1.832  2.448 1.000 1.00000 2.150 1.000      2.065  23.000
  240 2.170 1.859  2.481 1.000 1.00000 2.160 1.000      1.872  23.000
  241 2.160 1.850  2.470 1.000 1.00000 2.160 1.000      2.751  23.000
  242 2.150 1.841  2.459 1.000 1.00000 2.150 1.000      3.010  23.000
  243 2.150 1.841  2.459 1.000 1.00000 2.150 1.000      3.705  23.000
  244 2.170 1.859  2.481 1.000 1.00000 2.160 1.000      1.847  23.000
  245 2.140 1.832  2.448 1.000 1.00000 2.150 1.000      2.192  23.000
  246 2.140 1.832  2.448 1.000 1.00000 2.130 1.000      2.723  23.000
  247 2.130 1.823  2.437 1.000 1.00000 2.130 1.000      4.256  23.000
  248 2.150 1.841  2.459 1.000 1.00000 2.150 1.000      3.026  23.000
  249 2.260 1.941  2.579 1.000 1.00000 2.260 1.000     12.003  23.000
  250 2.150 1.841  2.459 1.000 1.00000 2.150 1.000      2.483  23.000
  251 2.150 1.841  2.459 1.000 1.00000 2.150 1.000      2.918  23.000
  252 2.180 1.868  2.492 1.000 1.00000 2.180 1.000      2.364  23.000
  253 2.160 1.850  2.470 1.000 1.00000 2.160 1.000      2.512  23.000
  254 2.150 1.841  2.459 1.000 1.00000 2.150 1.000      2.052  23.000
  255 2.260 1.941  2.579 1.000 1.00000 2.260 1.000     12.179  23.000
  256 2.140 1.832  2.448 1.000 1.00000 2.130 1.000      2.807  23.000
  257 2.130 1.823  2.437 1.000 1.00000 2.130 1.000      4.153  23.000
  258 2.180 1.868  2.492 1.000 1.00000 2.180 1.000      3.042  23.000
  259 2.150 1.841  2.459 1.000 1.00000 2.150 1.000      2.106  23.000
  260 2.160 1.850  2.470 1.000 1.00000 2.160 1.000      2.634  23.000
  261 2.150 1.841  2.459 1.000 1.00000 2.150 1.000      2.472  23.000
  262 2.190 1.877  2.503 1.000 1.00000 2.190 1.000      4.117  23.000
  263 2.150 1.841  2.459 1.000 1.00000 2.150 1.000      4.800  23.000
  264 2.130 1.823  2.437 1.000 1.00000 2.130 1.000      4.194  23.000
  265 2.130 1.823  2.437 1.000 1.00000 2.130 1.000      3.513  23.000
  266 2.180 1.868  2.492 1.000 1.00000 2.180 1.000      2.436  23.000
  267 2.280 1.959  2.601 1.000 1.00000 2.280 1.000     39.635  23.000
  268 2.160 1.850  2.470 1.000 1.00000 2.160 1.000      2.766  23.000
  269 2.150 1.841  2.459 1.000 1.00000 2.150 1.000      4.031  23.000
  270 2.150 1.841  2.459 1.000 1.00000 2.150 1.000      3.543  23.000
  271 2.160 1.850  2.470 1.000 1.00000 2.160 1.000      2.298  23.000
  272 2.160 1.850  2.470 1.000 1.00000 2.160 1.000      2.461  23.000
  273 2.120 1.814  2.426 1.000 1.00000 2.120 1.000      7.182  23.000
  274 2.130 1.823  2.437 1.000 1.00000 2.130 1.000      4.496  23.000
  275 2.110 1.805  2.415 1.000 1.00000 2.120 1.000      9.524  23.000
  276 2.200 1.886  2.514 1.000 1.00000 2.200 1.000      4.546  23.000
  277 2.170 1.859  2.481 1.000 1.00000 2.160 1.000      2.033  23.000
  278 2.180 1.868  2.492 1.000 1.00000 2.180 1.000      2.891  23.000
  279 2.140 1.832  2.448 1.000 1.00000 2.150 1.000      2.259  23.000
  280 2.170 1.859  2.481 1.000 1.00000 2.170 1.000      2.035  23.000
  281 2.180 1.868  2.492 1.000 1.00000 2.180 1.000      2.877  23.000
  282 2.140 1.832  2.448 1.000 1.00000 2.130 1.000      2.625  23.000
  283 2.180 1.868  2.492 1.000 1.00000 2.180 1.000      2.527  23.000
  284 2.120 1.814  2.426 1.000 1.00000 2.120 1.000      6.843  23.000
  285 2.140 1.832  2.448 1.000 1.00000 2.150 1.000      2.089  23.000
  286 2.150 1.841  2.459 1.000 1.00000 2.150 1.000      2.392  23.000
  287 2.200 1.886  2.514 1.000 1.00000 2.200 1.000      4.446  23.000
  288 2.160 1.850  2.470 1.000 1.00000 2.160 1.000      2.424  23.000
  289 2.130 1.823  2.437 1.000 1.00000 2.130 1.000      3.465  23.000
  290 2.120 1.814  2.426 1.000 1.00000 2.120 1.000      7.088  23.000
  291 2.120 1.814  2.426 1.000 1.00000 2.120 1.000      7.769  23.000
  292 2.130 1.823  2.437 1.000 1.00000 2.130 1.000      2.936  23.000
  293 2.170 1.859  2.481 1.000 1.00000 2.170 1.000      1.855  23.000
  294 2.130 1.823  2.437 1.000 1.00000 2.130 1.000      2.884  23.000
  295 2.140 1.832  2.448 1.000 1.00000 2.150 1.000      2.244  23.000
  296 2.130 1.823  2.437 1.000 1.00000 2.130 1.000      3.002  23.000
  297 2.210 1.895  2.525 1.000 1.00000 2.210 1.000      8.544  23.000
  298 2.200 1.886  2.514 1.000 1.00000 2.200 1.000      5.671  23.000
  299 2.150 1.841  2.459 1.000 1.00000 2.150 1.000      2.669  23.000
  300 2.140 1.832  2.448 1.000 1.00000 2.150 1.000      2.138  23.000
  301 2.130 1.823  2.437 1.000 1.00000 2.130 1.000      3.388  23.000
  302 2.190 1.877  2.503 1.000 1.00000 2.190 1.000      3.214  23.000
  303 2.130 1.823  2.437 1.000 1.00000 2.130 1.000      3.098  23.000
  304 2.160 1.850  2.470 1.000 1.00000 2.160 1.000      4.774  23.000
  305 2.150 1.841  2.459 1.000 1.00000 2.150 1.000      2.266  23.000
  306 2.150 1.841  2.459 1.000 1.00000 2.150 1.000      3.563  23.000
  307 2.160 1.850  2.470 1.000 1.00000 2.160 1.000      3.641  23.000
  308 2.130 1.823  2.437 1.000 1.00000 2.130 1.000      3.162  23.000
  309 2.130 1.823  2.437 1.000 1.00000 2.130 1.000      3.285  23.000
  310 2.130 1.823  2.437 1.000 1.00000 2.130 1.000      4.895  23.000
  311 2.220 1.904  2.536 1.000 1.00000 2.210 1.000     10.940  23.000
  312 2.150 1.841  2.459 1.000 1.00000 2.150 1.000      2.137  23.000
  313 2.160 1.850  2.470 1.000 1.00000 2.160 1.000      4.667  23.000
  314 2.160 1.850  2.470 1.000 1.00000 2.160 1.000      2.781  23.000
  315 2.170 1.859  2.481 1.000 1.00000 2.160 1.000      1.843  23.000
  316 2.120 1.814  2.426 1.000 1.00000 2.120 1.000      8.539  23.000
  317 2.140 1.832  2.448 1.000 1.00000 2.150 1.000      2.048  23.000
  318 2.190 1.877  2.503 1.000 1.00000 2.190 1.000      3.376  23.000
  319 2.120 1.814  2.426 1.000 1.00000 2.120 1.000      8.539  23.000
  320 2.150 1.841  2.459 1.000 1.00000 2.150 1.000      4.054  23.000
  321 2.150 1.841  2.459 1.000 1.00000 2.150 1.000      2.289  23.000
  322 2.170 1.859  2.481 1.000 1.00000 2.170 1.000      1.844  23.000
  323 2.140 1.832  2.448 1.000 1.00000 2.150 1.000      2.204  23.000
  324 2.160 1.850  2.470 1.000 1.00000 2.160 1.000      3.260  23.000
  325 2.140 1.832  2.448 1.000 1.00000 2.150 1.000      2.077  23.000
  326 2.160 1.850  2.470 1.000 1.00000 2.160 1.000      4.234  23.000
  327 2.170 1.859  2.481 1.000 1.00000 2.160 1.000      1.938  23.000
  328 2.150 1.841  2.459 1.000 1.00000 2.150 1.000      2.173  23.000
  329 2.150 1.841  2.459 1.000 1.00000 2.150 1.000      2.057  23.000
  330 2.160 1.850  2.470 1.000 1.00000 2.160 1.000      2.473  23.000
  331 2.150 1.841  2.459 1.000 1.00000 2.150 1.000      4.773  23.000
  332 2.160 1.850  2.470 1.000 1.00000 2.160 1.000      2.677  23.000
  333 2.130 1.823  2.437 1.000 1.00000 2.130 1.000      3.954  23.000
  334 2.170 1.859  2.481 1.000 1.00000 2.170 1.000      2.008  23.000
  335 2.160 1.850  2.470 1.000 1.00000 2.160 1.000      5.106  23.000
  336 2.130 1.823  2.437 1.000 1.00000 2.130 1.000      5.303  23.000
  337 2.140 1.832  2.448 1.000 1.00000 2.150 1.000      2.198  23.000
  338 2.130 1.823  2.437 1.000 1.00000 2.130 1.000      4.092  23.000
  339 2.150 1.841  2.459 1.000 1.00000 2.150 1.000      3.789  23.000
  340 2.150 1.841  2.459 1.000 1.00000 2.150 1.000      2.103  23.000
  341 2.130 1.823  2.437 1.000 1.00000 2.130 1.000      5.602  23.000
  342 2.140 1.832  2.448 1.000 1.00000 2.150 1.000      2.096  23.000
  343 2.160 1.850  2.470 1.000 1.00000 2.160 1.000      2.620  23.000
  344 2.150 1.841  2.459 1.000 1.00000 2.150 1.000      3.227  23.000
  345 2.160 1.850  2.470 1.000 1.00000 2.160 1.000      2.461  23.000
  346 2.220 1.904  2.536 1.000 1.00000 2.210 1.000     11.387  23.000
  347 2.160 1.850  2.470 1.000 1.00000 2.160 1.000      2.634  23.000
  348 2.160 1.850  2.470 1.000 1.00000 2.160 1.000      3.317  23.000
  349 2.140 1.832  2.448 1.000 1.00000 2.130 1.000      2.826  23.000
  350 2.130 1.823  2.437 1.000 1.00000 2.130 1.000      5.198  23.000
  351 2.170 1.859  2.481 1.000 1.00000 2.170 1.000      2.008  23.000
  352 2.150 1.841  2.459 1.000 1.00000 2.150 1.000      4.935  23.000
  353 2.120 1.814  2.426 1.000 1.00000 2.120 1.000      7.119  23.000
  354 2.110 1.805  2.415 1.000 1.00000 2.100 1.000     10.811  23.000
  355 2.160 1.850  2.470 1.000 1.00000 2.160 1.000      2.908  23.000
  356 2.160 1.850  2.470 1.000 1.00000 2.160 1.000      3.927  23.000
  357 2.150 1.841  2.459 1.000 1.00000 2.150 1.000      2.515  23.000
  358 2.140 1.832  2.448 1.000 1.00000 2.150 1.000      2.055  23.000
  359 2.200 1.886  2.514 1.000 1.00000 2.200 1.000      4.649  23.000
  360 2.150 1.841  2.459 1.000 1.00000 2.150 1.000      4.054  23.000
  361 2.160 1.850  2.470 1.000 1.00000 2.160 1.000      3.748  23.000
  362 2.150 1.841  2.459 1.000 1.00000 2.150 1.000      3.389  23.000
  363 2.120 1.814  2.426 1.000 1.00000 2.120 1.000      7.341  23.000
  364 2.140 1.832  2.448 1.000 1.00000 2.150 1.000      2.373  23.000
  365 2.150 1.841  2.459 1.000 1.00000 2.150 1.000      3.010  23.000
  366 2.170 1.859  2.481 1.000 1.00000 2.170 1.000      2.035  23.000
  367 2.140 1.832  2.448 1.000 1.00000 2.140 1.000      2.506  23.000
  368 2.150 1.841  2.459 1.000 1.00000 2.150 1.000      4.563  23.000
  369 2.140 1.832  2.448 1.000 1.00000 2.140 1.000      2.456  23.000
  370 2.130 1.823  2.437 1.000 1.00000 2.130 1.000      3.715  23.000
  371 2.160 1.850  2.470 1.000 1.00000 2.160 1.000      2.246  23.000
  372 2.150 1.841  2.459 1.000 1.00000 2.150 1.000      4.641  23.000
  373 2.120 1.814  2.426 1.000 1.00000 2.130 1.000      6.460  23.000
  374 2.170 1.859  2.481 1.000 1.00000 2.160 1.000      1.842  23.000
  375 2.120 1.814  2.426 1.000 1.00000 2.130 1.000      6.336  23.000
  376 2.140 1.832  2.448 1.000 1.00000 2.150 1.000      2.067  23.000
  377 2.150 1.841  2.459 1.000 1.00000 2.150 1.000      2.057  23.000
  378 2.130 1.823  2.437 1.000 1.00000 2.130 1.000      2.991  23.000
  379 2.100 1.796  2.404 1.000 1.00000 2.100 1.000     16.672  23.000
  380 2.190 1.877  2.503 1.000 1.00000 2.190 1.000      4.202  23.000
  381 2.150 1.841  2.459 1.000 1.00000 2.150 1.000      2.631  23.000
  382 2.150 1.841  2.459 1.000 1.00000 2.150 1.000      2.948  23.000
  383 2.130 1.823  2.437 1.000 1.00000 2.130 1.000      4.385  23.000
  384 2.140 1.832  2.448 1.000 1.00000 2.130 1.000      2.707  23.000
  385 2.140 1.832  2.448 1.000 1.00000 2.150 1.000      2.063  23.000
  386 2.160 1.850  2.470 1.000 1.00000 2.160 1.000      3.973  23.000
  387 2.150 1.841  2.459 1.000 1.00000 2.150 1.000      4.538  23.000
  388 2.150 1.841  2.459 1.000 1.00000 2.150 1.000      2.237  23.000
  389 2.190 1.877  2.503 1.000 1.00000 2.190 1.000      3.783  23.000
  390 2.160 1.850  2.470 1.000 1.00000 2.160 1.000      4.720  23.000
  391 2.140 1.832  2.448 1.000 1.00000 2.150 1.000      2.075  23.000
  392 2.170 1.859  2.481 1.000 1.00000 2.160 1.000      1.842  23.000
  393 2.130 1.823  2.437 1.000 1.00000 2.130 1.000      4.132  23.000
  394 2.120 1.814  2.426 1.000 1.00000 2.120 1.000      6.934  23.000
  395 2.110 1.805  2.415 1.000 1.00000 2.100 1.000     10.960  23.000
  396 2.160 1.850  2.470 1.000 1.00000 2.160 1.000      3.557  23.000
  397 2.140 1.832  2.448 1.000 1.00000 2.140 1.000      2.606  23.000
  398 2.170 1.859  2.481 1.000 1.00000 2.170 1.000      1.870  23.000
  399 2.150 1.841  2.459 1.000 1.00000 2.150 1.000      2.053  23.000
  400 2.200 1.886  2.514 1.000 1.00000 2.200 1.000      5.671  23.000
  401 2.170 1.859  2.481 1.000 1.00000 2.170 1.000      1.910  23.000
  402 2.170 1.859  2.481 1.000 1.00000 2.170 1.000      1.901  23.000
  403 2.150 1.841  2.459 1.000 1.00000 2.150 1.000      3.810  23.000
  404 2.150 1.841  2.459 1.000 1.00000 2.150 1.000      2.052  23.000
  405 2.150 1.841  2.459 1.000 1.00000 2.150 1.000      2.472  23.000
  406 2.210 1.895  2.525 1.000 1.00000 2.210 1.000      8.508  23.000
  407 2.130 1.823  2.437 1.000 1.00000 2.130 1.000      5.356  23.000
  408 2.150 1.841  2.459 1.000 1.00000 2.150 1.000      2.082  23.000
  409 2.190 1.877  2.503 1.000 1.00000 2.190 1.000      3.878  23.000
  410 2.130 1.823  2.437 1.000 1.00000 2.130 1.000      4.235  23.000
  411 2.150 1.841  2.459 1.000 1.00000 2.150 1.000      3.543  23.000
  412 2.130 1.823  2.437 1.000 1.00000 2.130 1.000      3.373  23.000
  413 2.170 1.859  2.481 1.000 1.00000 2.160 1.000      1.842  23.000
  414 2.180 1.868  2.492 1.000 1.00000 2.180 1.000      2.373  23.000
  415 2.150 1.841  2.459 1.000 1.00000 2.150 1.000      2.383  23.000
  416 2.150 1.841  2.459 1.000 1.00000 2.150 1.000      4.338  23.000
  417 2.130 1.823  2.437 1.000 1.00000 2.130 1.000      5.250  23.000
  418 2.130 1.823  2.437 1.000 1.00000 2.130 1.000      3.086  23.000
  419 2.190 1.877  2.503 1.000 1.00000 2.190 1.000      3.710  23.000
  420 2.150 1.841  2.459 1.000 1.00000 2.150 1.000      4.437  23.000
  421 2.170 1.859  2.481 1.000 1.00000 2.160 1.000      1.845  23.000
  422 2.160 1.850  2.470 1.000 1.00000 2.160 1.000      2.388  23.000
  423 2.120 1.814  2.426 1.000 1.00000 2.120 1.000      7.870  23.000
  424 2.150 1.841  2.459 1.000 1.00000 2.150 1.000      3.684  23.000
  425 2.150 1.841  2.459 1.000 1.00000 2.150 1.000      2.619  23.000
  426 2.170 1.859  2.481 1.000 1.00000 2.170 1.000      1.923  23.000
  427 2.130 1.823  2.437 1.000 1.00000 2.130 1.000      3.878  23.000
  428 2.150 1.841  2.459 1.000 1.00000 2.150 1.000      2.069  23.000
  429 2.130 1.823  2.437 1.000 1.00000 2.130 1.000      4.429  23.000
  430 2.120 1.814  2.426 1.000 1.00000 2.120 1.000      6.490  23.000
  431 2.140 1.832  2.448 1.000 1.00000 2.150 1.000      2.059  23.000
  432 2.200 1.886  2.514 1.000 1.00000 2.200 1.000      5.488  23.000
  433 2.150 1.841  2.459 1.000 1.00000 2.150 1.000      2.504  23.000
  434 2.140 1.832  2.448 1.000 1.00000 2.150 1.000      2.251  23.000
  435 2.160 1.850  2.470 1.000 1.00000 2.160 1.000      2.197  23.000
  436 2.140 1.832  2.448 1.000 1.00000 2.150 1.000      2.289  23.000
  437 2.150 1.841  2.459 1.000 1.00000 2.150 1.000      2.052  23.000
  438 2.150 1.841  2.459 1.000 1.00000 2.150 1.000      3.446  23.000
  439 2.150 1.841  2.459 1.000 1.00000 2.150 1.000      2.607  23.000
  440 2.170 1.859  2.481 1.000 1.00000 2.160 1.000      1.852  23.000
  441 2.130 1.823  2.437 1.000 1.00000 2.130 1.000      3.086  23.000
  442 2.130 1.823  2.437 1.000 1.00000 2.130 1.000      4.822  23.000
  443 2.160 1.850  2.470 1.000 1.00000 2.160 1.000      2.448  23.000
  444 2.140 1.832  2.448 1.000 1.00000 2.140 1.000      2.570  23.000
  445 2.140 1.832  2.448 1.000 1.00000 2.150 1.000      2.305  23.000
  446 2.150 1.841  2.459 1.000 1.00000 2.150 1.000      4.641  23.000
  447 2.140 1.832  2.448 1.000 1.00000 2.150 1.000      2.244  23.000
  448 2.180 1.868  2.492 1.000 1.00000 2.170 1.000      2.166  23.000
  449 2.130 1.823  2.437 1.000 1.00000 2.130 1.000      2.925  23.000
  450 2.150 1.841  2.459 1.000 1.00000 2.150 1.000      2.462  23.000
  451 2.160 1.850  2.470 1.000 1.00000 2.150 1.000      5.131  23.000
  452 2.260 1.941  2.579 1.000 1.00000 2.260 1.000     12.431  23.000
  453 2.200 1.886  2.514 1.000 1.00000 2.210 1.000      6.125  23.000
  454 2.160 1.850  2.470 1.000 1.00000 2.160 1.000      2.077  23.000
  455 2.140 1.832  2.448 1.000 1.00000 2.150 1.000      2.138  23.000
  456 2.170 1.859  2.481 1.000 1.00000 2.170 1.000      1.890  23.000
  457 2.180 1.868  2.492 1.000 1.00000 2.180 1.000      2.506  23.000
  458 2.140 1.832  2.448 1.000 1.00000 2.150 1.000      2.251  23.000
  459 2.110 1.805  2.415 1.000 1.00000 2.100 1.000     10.271  23.000
  460 2.160 1.850  2.470 1.000 1.00000 2.160 1.000      3.113  23.000
  461 2.150 1.841  2.459 1.000 1.00000 2.150 1.000      4.827  23.000
  462 2.160 1.850  2.470 1.000 1.00000 2.160 1.000      3.727  23.000
  463 2.150 1.841  2.459 1.000 1.00000 2.150 1.000      2.526  23.000
  464 2.140 1.832  2.448 1.000 1.00000 2.150 1.000      2.251  23.000
  465 2.130 1.823  2.437 1.000 1.00000 2.130 1.000      4.032  23.000
  466 2.200 1.886  2.514 1.000 1.00000 2.200 1.000      4.843  23.000
  467 2.160 1.850  2.470 1.000 1.00000 2.160 1.000      5.135  23.000
  468 2.190 1.877  2.503 1.000 1.00000 2.190 1.000      3.536  23.000
  469 2.150 1.841  2.459 1.000 1.00000 2.150 1.000      2.844  23.000
  470 2.160 1.850  2.470 1.000 1.00000 2.160 1.000      4.938  23.000
  471 2.150 1.841  2.459 1.000 1.00000 2.150 1.000      4.720  23.000
  472 2.160 1.850  2.470 1.000 1.00000 2.160 1.000      2.084  23.000
  473 2.130 1.823  2.437 1.000 1.00000 2.130 1.000      2.936  23.000
  474 2.170 1.859  2.481 1.000 1.00000 2.170 1.000      2.028  23.000
  475 2.150 1.841  2.459 1.000 1.00000 2.150 1.000      2.431  23.000
  476 2.150 1.841  2.459 1.000 1.00000 2.150 1.000      4.362  23.000
  477 2.130 1.823  2.437 1.000 1.00000 2.130 1.000      4.451  23.000
  478 2.100 1.796  2.404 1.000 1.00000 2.100 1.000     12.342  23.000
  479 2.160 1.850  2.470 1.000 1.00000 2.160 1.000      2.486  23.000
  480 2.180 1.868  2.492 1.000 1.00000 2.180 1.000      2.427  23.000
  481 2.140 1.832  2.448 1.000 1.00000 2.140 1.000      2.562  23.000
  482 2.150 1.841  2.459 1.000 1.00000 2.150 1.000      2.056  23.000
  483 2.200 1.886  2.514 1.000 1.00000 2.200 1.000      5.238  23.000
  484 2.150 1.841  2.459 1.000 1.00000 2.150 1.000      3.042  23.000
  485 2.160 1.850  2.470 1.000 1.00000 2.160 1.000      2.169  23.000
  486 2.120 1.814  2.426 1.000 1.00000 2.120 1.000      8.983  23.000
  487 2.130 1.823  2.437 1.000 1.00000 2.130 1.000      5.356  23.000
  488 2.200 1.886  2.514 1.000 1.00000 2.200 1.000      4.587  23.000
  489 2.200 1.886  2.514 1.000 1.00000 2.200 1.000      5.189  23.000
  490 2.150 1.841  2.459 1.000 1.00000 2.150 1.000      2.053  23.000
  491 2.160 1.850  2.470 1.000 1.00000 2.160 1.000      4.283  23.000
  492 2.120 1.814  2.426 1.000 1.00000 2.120 1.000      7.088  23.000
  493 2.150 1.841  2.459 1.000 1.00000 2.150 1.000      2.504  23.000
  494 2.160 1.850  2.470 1.000 1.00000 2.160 1.000      3.113  23.000
  495 2.180 1.868  2.492 1.000 1.00000 2.170 1.000      2.166  23.000
  496 2.160 1.850  2.470 1.000 1.00000 2.160 1.000      2.812  23.000
  497 2.140 1.832  2.448 1.000 1.00000 2.150 1.000      2.111  23.000
  498 2.140 1.832  2.448 1.000 1.00000 2.150 1.000      2.128  23.000
  499 2.150 1.841  2.459 1.000 1.00000 2.150 1.000      2.347  23.000
  500 2.120 1.814  2.426 1.000 1.00000 2.130 1.000      5.799  23.000
  501 2.160 1.850  2.470 1.000 1.00000 2.160 1.000      3.298  23.000
  502 2.150 1.841  2.459 1.000 1.00000 2.150 1.000      3.603  23.000
  503 2.120 1.814  2.426 1.000 1.00000 2.120 1.000      6.813  23.000
  504 2.130 1.823  2.437 1.000 1.00000 2.130 1.000      4.609  23.000
  505 2.150 1.841  2.459 1.000 1.00000 2.150 1.000      2.321  23.000
  506 2.130 1.823  2.437 1.000 1.00000 2.130 1.000      5.356  23.000
  507 2.170 1.859  2.481 1.000 1.00000 2.170 1.000      1.867  23.000
  508 2.120 1.814  2.426 1.000 1.00000 2.130 1.000      6.274  23.000
  509 2.170 1.859  2.481 1.000 1.00000 2.170 1.000      1.842  23.000
  510 2.150 1.841  2.459 1.000 1.00000 2.150 1.000      2.669  23.000
  511 2.170 1.859  2.481 1.000 1.00000 2.160 1.000      1.860  23.000
  512 2.120 1.814  2.426 1.000 1.00000 2.120 1.000      7.470  23.000
  513 2.180 1.868  2.492 1.000 1.00000 2.180 1.000      3.074  23.000
  514 2.160 1.850  2.470 1.000 1.00000 2.160 1.000      4.458  23.000
  515 2.150 1.841  2.459 1.000 1.00000 2.150 1.000      2.230  23.000
  516 2.260 1.941  2.579 1.000 1.00000 2.260 1.000     12.544  23.000
  517 2.140 1.832  2.448 1.000 1.00000 2.140 1.000      2.498  23.000
  518 2.160 1.850  2.470 1.000 1.00000 2.160 1.000      3.241  23.000
  519 2.220 1.904  2.536 1.000 1.00000 2.210 1.000     10.679  23.000
  520 2.140 1.832  2.448 1.000 1.00000 2.150 1.000      2.305  23.000
  521 2.140 1.832  2.448 1.000 1.00000 2.140 1.000      2.436  23.000
  522 2.140 1.832  2.448 1.000 1.00000 2.150 1.000      2.080  23.000
  523 2.160 1.850  2.470 1.000 1.00000 2.160 1.000      4.408  23.000
  524 2.140 1.832  2.448 1.000 1.00000 2.150 1.000      2.217  23.000
  525 2.110 1.805  2.415 1.000 1.00000 2.100 1.000     11.811  23.000
  526 2.160 1.850  2.470 1.000 1.00000 2.160 1.000      2.941  23.000
  527 2.170 1.859  2.481 1.000 1.00000 2.170 1.000      1.865  23.000
  528 2.140 1.832  2.448 1.000 1.00000 2.150 1.000      2.056  23.000
  529 2.150 1.841  2.459 1.000 1.00000 2.150 1.000      4.008  23.000
  530 2.170 1.859  2.481 1.000 1.00000 2.160 1.000      1.872  23.000
  531 2.160 1.850  2.470 1.000 1.00000 2.160 1.000      3.241  23.000
  532 2.140 1.832  2.448 1.000 1.00000 2.140 1.000      2.529  23.000
  533 2.140 1.832  2.448 1.000 1.00000 2.150 1.000      2.163  23.000
  534 2.150 1.841  2.459 1.000 1.00000 2.150 1.000      2.185  23.000
  535 2.160 1.850  2.470 1.000 1.00000 2.160 1.000      3.557  23.000
  536 2.180 1.868  2.492 1.000 1.00000 2.170 1.000      2.318  23.000
  537 2.150 1.841  2.459 1.000 1.00000 2.150 1.000      2.103  23.000
  538 2.140 1.832  2.448 1.000 1.00000 2.150 1.000      2.051  23.000
  539 2.100 1.796  2.404 1.000 1.00000 2.100 1.000     17.202  23.000
  540 2.160 1.850  2.470 1.000 1.00000 2.160 1.000      2.499  23.000
  541 2.120 1.814  2.426 1.000 1.00000 2.120 1.000      8.466  23.000
  542 2.170 1.859  2.481 1.000 1.00000 2.160 1.000      1.981  23.000
  543 2.110 1.805  2.415 1.000 1.00000 2.100 1.000     11.573  23.000
  544 2.160 1.850  2.470 1.000 1.00000 2.160 1.000      2.828  23.000
  545 2.170 1.859  2.481 1.000 1.00000 2.160 1.000      1.862  23.000
  546 2.130 1.823  2.437 1.000 1.00000 2.130 1.000      5.491  23.000
  547 2.130 1.823  2.437 1.000 1.00000 2.130 1.000      5.491  23.000
  548 2.140 1.832  2.448 1.000 1.00000 2.140 1.000      2.476  23.000
  549 2.120 1.814  2.426 1.000 1.00000 2.130 1.000      5.658  23.000
  550 2.160 1.850  2.470 1.000 1.00000 2.160 1.000      2.844  23.000
  551 2.140 1.832  2.448 1.000 1.00000 2.140 1.000      2.529  23.000
  552 2.150 1.841  2.459 1.000 1.00000 2.150 1.000      5.103  23.000
  553 2.160 1.850  2.470 1.000 1.00000 2.160 1.000      3.223  23.000
  554 2.120 1.814  2.426 1.000 1.00000 2.130 1.000      5.974  23.000
  555 2.150 1.841  2.459 1.000 1.00000 2.150 1.000      2.402  23.000
  556 2.200 1.886  2.514 1.000 1.00000 2.200 1.000      5.618  23.000
  557 2.140 1.832  2.448 1.000 1.00000 2.150 1.000      2.330  23.000
  558 2.140 1.832  2.448 1.000 1.00000 2.130 1.000      2.671  23.000
  559 2.140 1.832  2.448 1.000 1.00000 2.150 1.000      2.313  23.000
  560 2.140 1.832  2.448 1.000 1.00000 2.150 1.000      2.086  23.000
  561 2.190 1.877  2.503 1.000 1.00000 2.190 1.000      3.657  23.000
  562 2.160 1.850  2.470 1.000 1.00000 2.160 1.000      3.026  23.000
  563 2.150 1.841  2.459 1.000 1.00000 2.150 1.000      3.465  23.000
  564 2.170 1.859  2.481 1.000 1.00000 2.160 1.000      1.844  23.000
  565 2.210 1.895  2.525 1.000 1.00000 2.210 1.000      7.370  23.000
  566 2.150 1.841  2.459 1.000 1.00000 2.150 1.000      2.963  23.000
  567 2.110 1.805  2.415 1.000 1.00000 2.100 1.000     10.063  23.000
  568 2.130 1.823  2.437 1.000 1.00000 2.130 1.000      3.562  23.000
  569 2.210 1.895  2.525 1.000 1.00000 2.210 1.000      9.212  23.000
  570 2.150 1.841  2.459 1.000 1.00000 2.150 1.000      4.693  23.000
  571 2.150 1.841  2.459 1.000 1.00000 2.150 1.000      2.210  23.000
  572 2.170 1.859  2.481 1.000 1.00000 2.160 1.000      2.047  23.000
  573 2.170 1.859  2.481 1.000 1.00000 2.170 1.000      2.130  23.000
  574 2.260 1.941  2.579 1.000 1.00000 2.260 1.000     12.339  23.000
  575 2.170 1.859  2.481 1.000 1.00000 2.170 1.000      1.846  23.000
  576 2.160 1.850  2.470 1.000 1.00000 2.160 1.000      3.317  23.000
  577 2.130 1.823  2.437 1.000 1.00000 2.130 1.000      3.216  23.000
  578 2.100 1.796  2.404 1.000 1.00000 2.100 1.000     13.022  23.000
  579 2.110 1.805  2.415 1.000 1.00000 2.120 1.000      9.844  23.000
  580 2.130 1.823  2.437 1.000 1.00000 2.130 1.000      2.915  23.000
  581 2.170 1.859  2.481 1.000 1.00000 2.170 1.000      1.883  23.000
  582 2.170 1.859  2.481 1.000 1.00000 2.160 1.000      1.948  23.000
  583 2.140 1.832  2.448 1.000 1.00000 2.150 1.000      2.259  23.000
  584 2.130 1.823  2.437 1.000 1.00000 2.130 1.000      5.303  23.000
  585 2.180 1.868  2.492 1.000 1.00000 2.180 1.000      2.617  23.000
  586 2.150 1.841  2.459 1.000 1.00000 2.150 1.000      2.197  23.000
  587 2.160 1.850  2.470 1.000 1.00000 2.160 1.000      3.814  23.000
  588 2.160 1.850  2.470 1.000 1.00000 2.160 1.000      4.774  23.000
  589 2.150 1.841  2.459 1.000 1.00000 2.150 1.000      2.548  23.000
  590 2.210 1.895  2.525 1.000 1.00000 2.210 1.000      8.580  23.000
  591 2.150 1.841  2.459 1.000 1.00000 2.150 1.000      4.881  23.000
  592 2.160 1.850  2.470 1.000 1.00000 2.160 1.000      2.054  23.000
  593 2.130 1.823  2.437 1.000 1.00000 2.130 1.000      4.563  23.000
  594 2.140 1.832  2.448 1.000 1.00000 2.130 1.000      2.651  23.000
  595 2.150 1.841  2.459 1.000 1.00000 2.150 1.000      3.484  23.000
  596 2.150 1.841  2.459 1.000 1.00000 2.150 1.000      4.194  23.000
  597 2.140 1.832  2.448 1.000 1.00000 2.150 1.000      2.115  23.000
  598 2.140 1.832  2.448 1.000 1.00000 2.150 1.000      2.211  23.000
  599 2.140 1.832  2.448 1.000 1.00000 2.150 1.000      2.128  23.000
  600 2.120 1.814  2.426 1.000 1.00000 2.120 1.000      7.182  23.000
  601 2.120 1.814  2.426 1.000 1.00000 2.130 1.000      6.183  23.000
  602 2.150 1.841  2.459 1.000 1.00000 2.150 1.000      2.123  23.000
  603 2.160 1.850  2.470 1.000 1.00000 2.160 1.000      2.309  23.000
  604 2.110 1.805  2.415 1.000 1.00000 2.100 1.000     11.224  23.000
  605 2.130 1.823  2.437 1.000 1.00000 2.130 1.000      3.823  23.000
  606 2.260 1.941  2.579 1.000 1.00000 2.260 1.000     22.779  23.000
  607 2.150 1.841  2.459 1.000 1.00000 2.150 1.000      4.512  23.000
  608 2.140 1.832  2.448 1.000 1.00000 2.150 1.000      2.119  23.000
  609 2.120 1.814  2.426 1.000 1.00000 2.120 1.000      8.077  23.000
  610 2.130 1.823  2.437 1.000 1.00000 2.130 1.000      3.823  23.000
  611 2.150 1.841  2.459 1.000 1.00000 2.150 1.000      2.431  23.000
  612 2.160 1.850  2.470 1.000 1.00000 2.160 1.000      4.357  23.000
  613 2.150 1.841  2.459 1.000 1.00000 2.150 1.000      2.830  23.000
  614 2.140 1.832  2.448 1.000 1.00000 2.150 1.000      2.251  23.000
  615 2.150 1.841  2.459 1.000 1.00000 2.150 1.000      3.603  23.000
  616 2.160 1.850  2.470 1.000 1.00000 2.160 1.000      3.356  23.000
  617 2.140 1.832  2.448 1.000 1.00000 2.150 1.000      2.047  23.000
  618 2.130 1.823  2.437 1.000 1.00000 2.130 1.000      5.410  23.000
  619 2.130 1.823  2.437 1.000 1.00000 2.130 1.000      3.663  23.000
  620 2.120 1.814  2.426 1.000 1.00000 2.120 1.000      9.021  23.000
  621 2.150 1.841  2.459 1.000 1.00000 2.150 1.000      2.760  23.000
  622 2.160 1.850  2.470 1.000 1.00000 2.160 1.000      3.495  23.000
  623 2.150 1.841  2.459 1.000 1.00000 2.150 1.000      2.258  23.000
  624 2.150 1.841  2.459 1.000 1.00000 2.150 1.000      2.548  23.000
  625 2.160 1.850  2.470 1.000 1.00000 2.160 1.000      4.667  23.000
  626 2.190 1.877  2.503 1.000 1.00000 2.190 1.000      4.202  23.000
  627 2.160 1.850  2.470 1.000 1.00000 2.160 1.000      3.060  23.000
  628 2.190 1.877  2.503 1.000 1.00000 2.190 1.000      3.692  23.000
  629 2.140 1.832  2.448 1.000 1.00000 2.140 1.000      2.449  23.000
  630 2.140 1.832  2.448 1.000 1.00000 2.150 1.000      2.048  23.000
  631 2.150 1.841  2.459 1.000 1.00000 2.150 1.000      3.747  23.000
  632 2.160 1.850  2.470 1.000 1.00000 2.160 1.000      2.812  23.000
  633 2.260 1.941  2.579 1.000 1.00000 2.260 1.000     19.064  23.000
  634 2.160 1.850  2.470 1.000 1.00000 2.160 1.000      2.706  23.000
  635 2.130 1.823  2.437 1.000 1.00000 2.130 1.000      3.189  23.000
  636 2.160 1.850  2.470 1.000 1.00000 2.160 1.000      4.693  23.000
  637 2.150 1.841  2.459 1.000 1.00000 2.150 1.000      2.918  23.000
  638 2.160 1.850  2.470 1.000 1.00000 2.160 1.000      3.167  23.000
  639 2.150 1.841  2.459 1.000 1.00000 2.150 1.000      3.919  23.000
  640 2.120 1.814  2.426 1.000 1.00000 2.120 1.000      7.938  23.000
  641 2.140 1.832  2.448 1.000 1.00000 2.150 1.000      2.047  23.000
  642 2.190 1.877  2.503 1.000 1.00000 2.190 1.000      3.710  23.000
  643 2.150 1.841  2.459 1.000 1.00000 2.150 1.000      2.062  23.000
  644 2.150 1.841  2.459 1.000 1.00000 2.150 1.000      4.387  23.000
  645 2.140 1.832  2.448 1.000 1.00000 2.150 1.000      2.392  23.000
  646 2.160 1.850  2.470 1.000 1.00000 2.160 1.000      4.357  23.000
  647 2.140 1.832  2.448 1.000 1.00000 2.130 1.000      2.730  23.000
  648 2.130 1.823  2.437 1.000 1.00000 2.130 1.000      5.383  23.000
  649 2.140 1.832  2.448 1.000 1.00000 2.150 1.000      2.072  23.000
  650 2.140 1.832  2.448 1.000 1.00000 2.150 1.000      2.305  23.000
  651 2.160 1.850  2.470 1.000 1.00000 2.150 1.000      5.131  23.000
  652 2.130 1.823  2.437 1.000 1.00000 2.130 1.000      2.915  23.000
  653 2.160 1.850  2.470 1.000 1.00000 2.150 1.000      5.160  23.000
  654 2.170 1.859  2.481 1.000 1.00000 2.160 1.000      1.872  23.000
  655 2.150 1.841  2.459 1.000 1.00000 2.150 1.000      2.607  23.000
  656 2.160 1.850  2.470 1.000 1.00000 2.160 1.000      4.774  23.000
  657 2.150 1.841  2.459 1.000 1.00000 2.150 1.000      2.095  23.000
  658 2.140 1.832  2.448 1.000 1.00000 2.150 1.000      2.080  23.000
  659 2.150 1.841  2.459 1.000 1.00000 2.150 1.000      2.230  23.000
  660 2.150 1.841  2.459 1.000 1.00000 2.150 1.000      2.994  23.000
  661 2.160 1.850  2.470 1.000 1.00000 2.160 1.000      3.043  23.000
  662 2.160 1.850  2.470 1.000 1.00000 2.160 1.000      3.516  23.000
  663 2.140 1.832  2.448 1.000 1.00000 2.150 1.000      2.392  23.000
  664 2.170 1.859  2.481 1.000 1.00000 2.160 1.000      1.847  23.000
  665 2.140 1.832  2.448 1.000 1.00000 2.130 1.000      2.664  23.000
  666 2.170 1.859  2.481 1.000 1.00000 2.160 1.000      1.860  23.000
  667 2.160 1.850  2.470 1.000 1.00000 2.160 1.000      2.634  23.000
  668 2.160 1.850  2.470 1.000 1.00000 2.160 1.000      4.161  23.000
  669 2.150 1.841  2.459 1.000 1.00000 2.150 1.000      2.237  23.000
  670 2.150 1.841  2.459 1.000 1.00000 2.150 1.000      3.280  23.000
  671 2.150 1.841  2.459 1.000 1.00000 2.150 1.000      4.100  23.000
  672 2.170 1.859  2.481 1.000 1.00000 2.160 1.000      1.923  23.000
  673 2.230 1.913  2.547 1.000 1.00000 2.260 1.000     11.872  23.000
  674 2.170 1.859  2.481 1.000 1.00000 2.160 1.000      1.898  23.000
  675 2.160 1.850  2.470 1.000 1.00000 2.160 1.000      2.876  23.000
  676 2.190 1.877  2.503 1.000 1.00000 2.190 1.000      3.133  23.000
  677 2.140 1.832  2.448 1.000 1.00000 2.140 1.000      2.418  23.000
  678 2.160 1.850  2.470 1.000 1.00000 2.160 1.000      3.186  23.000
  679 2.150 1.841  2.459 1.000 1.00000 2.150 1.000      2.356  23.000
  680 2.110 1.805  2.415 1.000 1.00000 2.120 1.000      9.328  23.000
  681 2.160 1.850  2.470 1.000 1.00000 2.160 1.000      2.134  23.000
  682 2.150 1.841  2.459 1.000 1.00000 2.150 1.000      2.216  23.000
  683 2.140 1.832  2.448 1.000 1.00000 2.150 1.000      2.103  23.000
  684 2.150 1.841  2.459 1.000 1.00000 2.150 1.000      4.100  23.000
  685 2.160 1.850  2.470 1.000 1.00000 2.160 1.000      3.557  23.000
  686 2.140 1.832  2.448 1.000 1.00000 2.150 1.000      2.072  23.000
  687 2.130 1.823  2.437 1.000 1.00000 2.130 1.000      2.958  23.000
  688 2.150 1.841  2.459 1.000 1.00000 2.150 1.000      2.483  23.000
  689 2.130 1.823  2.437 1.000 1.00000 2.130 1.000      4.726  23.000
  690 2.130 1.823  2.437 1.000 1.00000 2.130 1.000      4.702  23.000
  691 2.190 1.877  2.503 1.000 1.00000 2.190 1.000      4.159  23.000
  692 2.150 1.841  2.459 1.000 1.00000 2.150 1.000      4.720  23.000
  693 2.130 1.823  2.437 1.000 1.00000 2.130 1.000      5.224  23.000
  694 2.160 1.850  2.470 1.000 1.00000 2.160 1.000      3.641  23.000
  695 2.150 1.841  2.459 1.000 1.00000 2.150 1.000      2.948  23.000
  696 2.160 1.850  2.470 1.000 1.00000 2.160 1.000      2.551  23.000
  697 2.150 1.841  2.459 1.000 1.00000 2.150 1.000      3.446  23.000
  698 2.140 1.832  2.448 1.000 1.00000 2.130 1.000      2.671  23.000
  699 2.140 1.832  2.448 1.000 1.00000 2.150 1.000      2.075  23.000
  700 2.150 1.841  2.459 1.000 1.00000 2.150 1.000      3.705  23.000
  701 2.190 1.877  2.503 1.000 1.00000 2.190 1.000      3.821  23.000
  702 2.160 1.850  2.470 1.000 1.00000 2.160 1.000      3.927  23.000
  703 2.160 1.850  2.470 1.000 1.00000 2.160 1.000      4.332  23.000
  704 2.130 1.823  2.437 1.000 1.00000 2.130 1.000      4.586  23.000
  705 2.140 1.832  2.448 1.000 1.00000 2.140 1.000      2.476  23.000
  706 2.160 1.850  2.470 1.000 1.00000 2.160 1.000      4.536  23.000
  707 2.110 1.805  2.415 1.000 1.00000 2.100 1.000     10.520  23.000
  708 2.150 1.841  2.459 1.000 1.00000 2.150 1.000      2.383  23.000
  709 2.160 1.850  2.470 1.000 1.00000 2.160 1.000      3.599  23.000
  710 2.110 1.805  2.415 1.000 1.00000 2.100 1.000     10.664  23.000
  711 2.150 1.841  2.459 1.000 1.00000 2.150 1.000      3.543  23.000
  712 2.150 1.841  2.459 1.000 1.00000 2.150 1.000      3.334  23.000
  713 2.160 1.850  2.470 1.000 1.00000 2.160 1.000      2.436  23.000
  714 2.150 1.841  2.459 1.000 1.00000 2.150 1.000      2.537  23.000
  715 2.160 1.850  2.470 1.000 1.00000 2.160 1.000      4.993  23.000
  716 2.140 1.832  2.448 1.000 1.00000 2.150 1.000      2.047  23.000
  717 2.150 1.841  2.459 1.000 1.00000 2.150 1.000      2.933  23.000
  718 2.120 1.814  2.426 1.000 1.00000 2.120 1.000      7.668  23.000
  719 2.180 1.868  2.492 1.000 1.00000 2.180 1.000      2.408  23.000
  720 2.140 1.832  2.448 1.000 1.00000 2.150 1.000      2.124  23.000
  721 2.130 1.823  2.437 1.000 1.00000 2.130 1.000      3.680  23.000
  722 2.150 1.841  2.459 1.000 1.00000 2.150 1.000      2.162  23.000
  723 2.140 1.832  2.448 1.000 1.00000 2.150 1.000      2.347  23.000
  724 2.160 1.850  2.470 1.000 1.00000 2.160 1.000      5.078  23.000
  725 2.180 1.868  2.492 1.000 1.00000 2.180 1.000      2.891  23.000
  726 2.130 1.823  2.437 1.000 1.00000 2.130 1.000      5.044  23.000
  727 2.180 1.868  2.492 1.000 1.00000 2.170 1.000      2.318  23.000
  728 2.140 1.832  2.448 1.000 1.00000 2.150 1.000      2.047  23.000
  729 2.140 1.832  2.448 1.000 1.00000 2.130 1.000      2.835  23.000
  730 2.140 1.832  2.448 1.000 1.00000 2.150 1.000      2.115  23.000
  731 2.170 1.859  2.481 1.000 1.00000 2.160 1.000      1.844  23.000
  732 2.160 1.850  2.470 1.000 1.00000 2.160 1.000      4.042  23.000
  733 2.160 1.850  2.470 1.000 1.00000 2.160 1.000      2.342  23.000
  734 2.110 1.805  2.415 1.000 1.00000 2.100 1.000     11.072  23.000
  735 2.140 1.832  2.448 1.000 1.00000 2.150 1.000      2.224  23.000
  736 2.260 1.941  2.579 1.000 1.00000 2.260 1.000     13.121  23.000
  737 2.190 1.877  2.503 1.000 1.00000 2.190 1.000      4.035  23.000
  738 2.160 1.850  2.470 1.000 1.00000 2.160 1.000      2.069  23.000
  739 2.170 1.859  2.481 1.000 1.00000 2.170 1.000      1.841  23.000
  740 2.180 1.868  2.492 1.000 1.00000 2.180 1.000      2.348  23.000
  741 2.200 1.886  2.514 1.000 1.00000 2.210 1.000      6.099  23.000
  742 2.120 1.814  2.426 1.000 1.00000 2.120 1.000      7.836  23.000
  743 2.170 1.859  2.481 1.000 1.00000 2.170 1.000      2.096  23.000
  744 2.160 1.850  2.470 1.000 1.00000 2.160 1.000      3.317  23.000
  745 2.260 1.941  2.579 1.000 1.00000 2.260 1.000     12.818  23.000
  746 2.140 1.832  2.448 1.000 1.00000 2.130 1.000      2.835  23.000
  747 2.130 1.823  2.437 1.000 1.00000 2.130 1.000      2.947  23.000
  748 2.160 1.850  2.470 1.000 1.00000 2.160 1.000      2.991  23.000
  749 2.150 1.841  2.459 1.000 1.00000 2.150 1.000      2.707  23.000
  750 2.150 1.841  2.459 1.000 1.00000 2.150 1.000      2.049  23.000
  751 2.150 1.841  2.459 1.000 1.00000 2.150 1.000      2.472  23.000
  752 2.160 1.850  2.470 1.000 1.00000 2.160 1.000      4.458  23.000
  753 2.120 1.814  2.426 1.000 1.00000 2.120 1.000      6.813  23.000
  754 2.150 1.841  2.459 1.000 1.00000 2.150 1.000      2.162  23.000
  755 2.140 1.832  2.448 1.000 1.00000 2.140 1.000      2.513  23.000
  756 2.260 1.941  2.579 1.000 1.00000 2.260 1.000     13.787  23.000
  757 2.150 1.841  2.459 1.000 1.00000 2.150 1.000      2.127  23.000
  758 2.140 1.832  2.448 1.000 1.00000 2.150 1.000      2.089  23.000
  759 2.170 1.859  2.481 1.000 1.00000 2.160 1.000      1.845  23.000
  760 2.120 1.814  2.426 1.000 1.00000 2.130 1.000      6.183  23.000
  761 2.140 1.832  2.448 1.000 1.00000 2.130 1.000      2.835  23.000
  762 2.130 1.823  2.437 1.000 1.00000 2.130 1.000      3.465  23.000
  763 2.140 1.832  2.448 1.000 1.00000 2.130 1.000      2.651  23.000
  764 2.150 1.841  2.459 1.000 1.00000 2.150 1.000      3.074  23.000
  765 2.210 1.895  2.525 1.000 1.00000 2.210 1.000      9.762  23.000
  766 2.190 1.877  2.503 1.000 1.00000 2.190 1.000      3.995  23.000
  767 2.140 1.832  2.448 1.000 1.00000 2.140 1.000      2.424  23.000
  768 2.150 1.841  2.459 1.000 1.00000 2.150 1.000      2.099  23.000
  769 2.150 1.841  2.459 1.000 1.00000 2.150 1.000      3.227  23.000
  770 2.150 1.841  2.459 1.000 1.00000 2.150 1.000      3.875  23.000
  771 2.150 1.841  2.459 1.000 1.00000 2.150 1.000      4.100  23.000
  772 2.110 1.805  2.415 1.000 1.00000 2.100 1.000     10.201  23.000
  773 2.190 1.877  2.503 1.000 1.00000 2.190 1.000      3.487  23.000
  774 2.140 1.832  2.448 1.000 1.00000 2.150 1.000      2.217  23.000
  775 2.190 1.877  2.503 1.000 1.00000 2.190 1.000      3.345  23.000
  776 2.110 1.805  2.415 1.000 1.00000 2.100 1.000      9.994  23.000
  777 2.150 1.841  2.459 1.000 1.00000 2.150 1.000      2.321  23.000
  778 2.140 1.832  2.448 1.000 1.00000 2.130 1.000      2.835  23.000
  779 2.160 1.850  2.470 1.000 1.00000 2.160 1.000      2.226  23.000
  780 2.190 1.877  2.503 1.000 1.00000 2.190 1.000      3.657  23.000
  781 2.260 1.941  2.579 1.000 1.00000 2.260 1.000     12.802  23.000
  782 2.140 1.832  2.448 1.000 1.00000 2.150 1.000      2.048  23.000
  783 2.150 1.841  2.459 1.000 1.00000 2.150 1.000      2.948  23.000
  784 2.120 1.814  2.426 1.000 1.00000 2.120 1.000      7.119  23.000
  785 2.200 1.886  2.514 1.000 1.00000 2.200 1.000      5.117  23.000
  786 2.150 1.841  2.459 1.000 1.00000 2.150 1.000      2.707  23.000
  787 2.160 1.850  2.470 1.000 1.00000 2.160 1.000      3.792  23.000
  788 2.150 1.841  2.459 1.000 1.00000 2.150 1.000      2.802  23.000
  789 2.210 1.895  2.525 1.000 1.00000 2.210 1.000      9.965  23.000
  790 2.160 1.850  2.470 1.000 1.00000 2.160 1.000      3.260  23.000
  791 2.150 1.841  2.459 1.000 1.00000 2.150 1.000      2.103  23.000
  792 2.140 1.832  2.448 1.000 1.00000 2.150 1.000      2.259  23.000
  793 2.130 1.823  2.437 1.000 1.00000 2.130 1.000      5.019  23.000
  794 2.160 1.850  2.470 1.000 1.00000 2.160 1.000      2.092  23.000
  795 2.140 1.832  2.448 1.000 1.00000 2.150 1.000      2.274  23.000
  796 2.160 1.850  2.470 1.000 1.00000 2.160 1.000      2.844  23.000
  797 2.140 1.832  2.448 1.000 1.00000 2.140 1.000      2.579  23.000
  798 2.110 1.805  2.415 1.000 1.00000 2.100 1.000     11.301  23.000
  799 2.140 1.832  2.448 1.000 1.00000 2.130 1.000      2.631  23.000
  800 2.170 1.859  2.481 1.000 1.00000 2.160 1.000      1.843  23.000
  801 2.170 1.859  2.481 1.000 1.00000 2.160 1.000      1.842  23.000
  802 2.160 1.850  2.470 1.000 1.00000 2.160 1.000      2.876  23.000
  803 2.210 1.895  2.525 1.000 1.00000 2.210 1.000      8.437  23.000
  804 2.130 1.823  2.437 1.000 1.00000 2.130 1.000      4.256  23.000
  805 2.160 1.850  2.470 1.000 1.00000 2.160 1.000      3.435  23.000
  806 2.140 1.832  2.448 1.000 1.00000 2.150 1.000      2.049  23.000
  807 2.160 1.850  2.470 1.000 1.00000 2.160 1.000      3.927  23.000
  808 2.150 1.841  2.459 1.000 1.00000 2.150 1.000      2.099  23.000
  809 2.170 1.859  2.481 1.000 1.00000 2.160 1.000      1.933  23.000
  810 2.150 1.841  2.459 1.000 1.00000 2.150 1.000      3.643  23.000
  811 2.150 1.841  2.459 1.000 1.00000 2.150 1.000      2.321  23.000
  812 2.160 1.850  2.470 1.000 1.00000 2.160 1.000      4.720  23.000
  813 2.260 1.941  2.579 1.000 1.00000 2.260 1.000     12.756  23.000
  814 2.160 1.850  2.470 1.000 1.00000 2.160 1.000      2.320  23.000
  815 2.160 1.850  2.470 1.000 1.00000 2.160 1.000      2.266  23.000
  816 2.150 1.841  2.459 1.000 1.00000 2.150 1.000      3.446  23.000
  817 2.210 1.895  2.525 1.000 1.00000 2.210 1.000      7.721  23.000
  818 2.160 1.850  2.470 1.000 1.00000 2.160 1.000      2.592  23.000
  819 2.130 1.823  2.437 1.000 1.00000 2.130 1.000      4.726  23.000
  820 2.130 1.823  2.437 1.000 1.00000 2.130 1.000      2.991  23.000
  821 2.100 1.796  2.404 1.000 1.00000 2.100 1.000     12.806  23.000
  822 2.210 1.895  2.525 1.000 1.00000 2.210 1.000      7.559  23.000
  823 2.130 1.823  2.437 1.000 1.00000 2.130 1.000      3.916  23.000
  824 2.130 1.823  2.437 1.000 1.00000 2.130 1.000      3.074  23.000
  825 2.150 1.841  2.459 1.000 1.00000 2.150 1.000      2.297  23.000
  826 2.150 1.841  2.459 1.000 1.00000 2.150 1.000      4.827  23.000
  827 2.150 1.841  2.459 1.000 1.00000 2.150 1.000      2.347  23.000
  828 2.160 1.850  2.470 1.000 1.00000 2.160 1.000      4.747  23.000
  829 2.160 1.850  2.470 1.000 1.00000 2.160 1.000      2.859  23.000
  830 2.110 1.805  2.415 1.000 1.00000 2.100 1.000     11.495  23.000
  831 2.150 1.841  2.459 1.000 1.00000 2.150 1.000      3.209  23.000
  832 2.160 1.850  2.470 1.000 1.00000 2.160 1.000      3.996  23.000
  833 2.150 1.841  2.459 1.000 1.00000 2.150 1.000      3.175  23.000
  834 2.160 1.850  2.470 1.000 1.00000 2.160 1.000      4.774  23.000
  835 2.160 1.850  2.470 1.000 1.00000 2.160 1.000      2.084  23.000
  836 2.140 1.832  2.448 1.000 1.00000 2.150 1.000      2.373  23.000
  837 2.160 1.850  2.470 1.000 1.00000 2.160 1.000      4.774  23.000
  838 2.130 1.823  2.437 1.000 1.00000 2.130 1.000      4.586  23.000
  839 2.150 1.841  2.459 1.000 1.00000 2.150 1.000      2.392  23.000
  840 2.150 1.841  2.459 1.000 1.00000 2.150 1.000      3.298  23.000
  841 2.130 1.823  2.437 1.000 1.00000 2.130 1.000      4.846  23.000
  842 2.140 1.832  2.448 1.000 1.00000 2.150 1.000      2.138  23.000
  843 2.140 1.832  2.448 1.000 1.00000 2.150 1.000      2.313  23.000
  844 2.160 1.850  2.470 1.000 1.00000 2.160 1.000      2.169  23.000
  845 2.160 1.850  2.470 1.000 1.00000 2.160 1.000      2.169  23.000
  846 2.130 1.823  2.437 1.000 1.00000 2.130 1.000      5.356  23.000
  847 2.140 1.832  2.448 1.000 1.00000 2.140 1.000      2.443  23.000
  848 2.160 1.850  2.470 1.000 1.00000 2.160 1.000      3.279  23.000
  849 2.150 1.841  2.459 1.000 1.00000 2.150 1.000      3.334  23.000
  850 2.150 1.841  2.459 1.000 1.00000 2.150 1.000      2.082  23.000
  851 2.140 1.832  2.448 1.000 1.00000 2.140 1.000      2.553  23.000
  852 2.140 1.832  2.448 1.000 1.00000 2.150 1.000      2.053  23.000
  853 2.160 1.850  2.470 1.000 1.00000 2.160 1.000      3.859  23.000
  854 2.150 1.841  2.459 1.000 1.00000 2.150 1.000      2.392  23.000
  855 2.150 1.841  2.459 1.000 1.00000 2.150 1.000      3.643  23.000
  856 2.150 1.841  2.459 1.000 1.00000 2.150 1.000      2.462  23.000
  857 2.120 1.814  2.426 1.000 1.00000 2.120 1.000      8.007  23.000
  858 2.140 1.832  2.448 1.000 1.00000 2.150 1.000      2.048  23.000
  859 2.130 1.823  2.437 1.000 1.00000 2.130 1.000      3.434  23.000
  860 2.140 1.832  2.448 1.000 1.00000 2.130 1.000      2.644  23.000
  861 2.180 1.868  2.492 1.000 1.00000 2.180 1.000      2.605  23.000
  862 2.140 1.832  2.448 1.000 1.00000 2.150 1.000      2.158  23.000
  863 2.150 1.841  2.459 1.000 1.00000 2.150 1.000      3.158  23.000
  864 2.150 1.841  2.459 1.000 1.00000 2.150 1.000      2.707  23.000
  865 2.140 1.832  2.448 1.000 1.00000 2.140 1.000      2.513  23.000
  866 2.110 1.805  2.415 1.000 1.00000 2.100 1.000     10.132  23.000
  867 2.170 1.859  2.481 1.000 1.00000 2.160 1.000      2.033  23.000
  868 2.150 1.841  2.459 1.000 1.00000 2.150 1.000      3.262  23.000
  869 2.160 1.850  2.470 1.000 1.00000 2.160 1.000      2.092  23.000
  870 2.140 1.832  2.448 1.000 1.00000 2.150 1.000      2.053  23.000
  871 2.170 1.859  2.481 1.000 1.00000 2.160 1.000      1.847  23.000
  872 2.260 1.941  2.579 1.000 1.00000 2.260 1.000     12.265  23.000
  873 2.140 1.832  2.448 1.000 1.00000 2.130 1.000      2.619  23.000
  874 2.130 1.823  2.437 1.000 1.00000 2.130 1.000      4.895  23.000
  875 2.130 1.823  2.437 1.000 1.00000 2.130 1.000      4.277  23.000
  876 2.150 1.841  2.459 1.000 1.00000 2.150 1.000      4.991  23.000
  877 2.140 1.832  2.448 1.000 1.00000 2.140 1.000      2.449  23.000
  878 2.130 1.823  2.437 1.000 1.00000 2.130 1.000      3.175  23.000
  879 2.150 1.841  2.459 1.000 1.00000 2.150 1.000      4.100  23.000
  880 2.140 1.832  2.448 1.000 1.00000 2.150 1.000      2.321  23.000
  881 2.150 1.841  2.459 1.000 1.00000 2.150 1.000      2.056  23.000
  882 2.160 1.850  2.470 1.000 1.00000 2.160 1.000      4.357  23.000
  883 2.130 1.823  2.437 1.000 1.00000 2.130 1.000      3.216  23.000
  884 2.110 1.805  2.415 1.000 1.00000 2.120 1.000      9.485  23.000
  885 2.160 1.850  2.470 1.000 1.00000 2.160 1.000      4.209  23.000
  886 2.150 1.841  2.459 1.000 1.00000 2.150 1.000      2.644  23.000
  887 2.130 1.823  2.437 1.000 1.00000 2.130 1.000      5.120  23.000
  888 2.130 1.823  2.437 1.000 1.00000 2.130 1.000      3.243  23.000
  889 2.150 1.841  2.459 1.000 1.00000 2.150 1.000      3.408  23.000
  890 2.160 1.850  2.470 1.000 1.00000 2.160 1.000      3.705  23.000
  891 2.210 1.895  2.525 1.000 1.00000 2.210 1.000      7.464  23.000
  892 2.150 1.841  2.459 1.000 1.00000 2.150 1.000      2.720  23.000
  893 2.190 1.877  2.503 1.000 1.00000 2.190 1.000      3.570  23.000
  894 2.170 1.859  2.481 1.000 1.00000 2.170 1.000      1.842  23.000
  895 2.130 1.823  2.437 1.000 1.00000 2.130 1.000      3.388  23.000
  896 2.200 1.886  2.514 1.000 1.00000 2.210 1.000      6.074  23.000
  897 2.170 1.859  2.481 1.000 1.00000 2.170 1.000      1.845  23.000
  898 2.140 1.832  2.448 1.000 1.00000 2.130 1.000      2.874  23.000
  899 2.150 1.841  2.459 1.000 1.00000 2.150 1.000      2.281  23.000
  900 2.160 1.850  2.470 1.000 1.00000 2.160 1.000      4.185  23.000
  901 2.150 1.841  2.459 1.000 1.00000 2.150 1.000      2.483  23.000
  902 2.130 1.823  2.437 1.000 1.00000 2.130 1.000      3.663  23.000
  903 2.120 1.814  2.426 1.000 1.00000 2.120 1.000      7.277  23.000
  904 2.150 1.841  2.459 1.000 1.00000 2.150 1.000      2.631  23.000
  905 2.130 1.823  2.437 1.000 1.00000 2.130 1.000      5.437  23.000
  906 2.200 1.886  2.514 1.000 1.00000 2.210 1.000      6.412  23.000
  907 2.160 1.850  2.470 1.000 1.00000 2.160 1.000      2.486  23.000
  908 2.150 1.841  2.459 1.000 1.00000 2.150 1.000      4.217  23.000
  909 2.150 1.841  2.459 1.000 1.00000 2.150 1.000      2.289  23.000
  910 2.160 1.850  2.470 1.000 1.00000 2.160 1.000      3.008  23.000
  911 2.130 1.823  2.437 1.000 1.00000 2.130 1.000      3.804  23.000
  912 2.140 1.832  2.448 1.000 1.00000 2.130 1.000      2.755  23.000
  913 2.130 1.823  2.437 1.000 1.00000 2.130 1.000      3.545  23.000
  914 2.130 1.823  2.437 1.000 1.00000 2.130 1.000      3.257  23.000
  915 2.150 1.841  2.459 1.000 1.00000 2.150 1.000      3.663  23.000
  916 2.150 1.841  2.459 1.000 1.00000 2.150 1.000      4.908  23.000
  917 2.290 1.968  2.612 1.000 1.00000 2.290 1.000     43.409  23.000
  918 2.150 1.841  2.459 1.000 1.00000 2.150 1.000      3.227  23.000
  919 2.120 1.814  2.426 1.000 1.00000 2.120 1.000      6.873  23.000
  920 2.130 1.823  2.437 1.000 1.00000 2.130 1.000      3.175  23.000
  921 2.150 1.841  2.459 1.000 1.00000 2.150 1.000      4.589  23.000
  922 2.180 1.868  2.492 1.000 1.00000 2.170 1.000      2.285  23.000
  923 2.150 1.841  2.459 1.000 1.00000 2.150 1.000      2.441  23.000
  924 2.160 1.850  2.470 1.000 1.00000 2.160 1.000      2.320  23.000
  925 2.130 1.823  2.437 1.000 1.00000 2.130 1.000      4.235  23.000
  926 2.120 1.814  2.426 1.000 1.00000 2.120 1.000      9.021  23.000
  927 2.110 1.805  2.415 1.000 1.00000 2.100 1.000     10.556  23.000
  928 2.150 1.841  2.459 1.000 1.00000 2.150 1.000      3.141  23.000
  929 2.160 1.850  2.470 1.000 1.00000 2.160 1.000      2.226  23.000
  930 2.150 1.841  2.459 1.000 1.00000 2.150 1.000      3.298  23.000
  931 2.160 1.850  2.470 1.000 1.00000 2.160 1.000      2.376  23.000
  932 2.160 1.850  2.470 1.000 1.00000 2.160 1.000      3.337  23.000
  933 2.150 1.841  2.459 1.000 1.00000 2.150 1.000      2.082  23.000
  934 2.120 1.814  2.426 1.000 1.00000 2.130 1.000      6.305  23.000
  935 2.160 1.850  2.470 1.000 1.00000 2.160 1.000      3.060  23.000
  936 2.130 1.823  2.437 1.000 1.00000 2.130 1.000      3.973  23.000
  937 2.150 1.841  2.459 1.000 1.00000 2.150 1.000      2.631  23.000
  938 2.180 1.868  2.492 1.000 1.00000 2.180 1.000      2.906  23.000
  939 2.130 1.823  2.437 1.000 1.00000 2.130 1.000      3.229  23.000
  940 2.140 1.832  2.448 1.000 1.00000 2.150 1.000      2.383  23.000
  941 2.120 1.814  2.426 1.000 1.00000 2.130 1.000      6.429  23.000
  942 2.160 1.850  2.470 1.000 1.00000 2.160 1.000      3.662  23.000
  943 2.150 1.841  2.459 1.000 1.00000 2.150 1.000      4.991  23.000
  944 2.170 1.859  2.481 1.000 1.00000 2.160 1.000      1.898  23.000
  945 2.150 1.841  2.459 1.000 1.00000 2.150 1.000      2.049  23.000
  946 2.160 1.850  2.470 1.000 1.00000 2.160 1.000      2.924  23.000
  947 2.170 1.859  2.481 1.000 1.00000 2.160 1.000      1.842  23.000
  948 2.160 1.850  2.470 1.000 1.00000 2.160 1.000      4.855  23.000
  949 2.130 1.823  2.437 1.000 1.00000 2.130 1.000      4.235  23.000
  950 2.130 1.823  2.437 1.000 1.00000 2.130 1.000      4.541  23.000
  951 2.150 1.841  2.459 1.000 1.00000 2.150 1.000      3.010  23.000
  952 2.170 1.859  2.481 1.000 1.00000 2.170 1.000      1.851  23.000
  953 2.210 1.895  2.525 1.000 1.00000 2.210 1.000      7.853  23.000
  954 2.150 1.841  2.459 1.000 1.00000 2.150 1.000      3.810  23.000
  955 2.260 1.941  2.579 1.000 1.00000 2.260 1.000     12.306  23.000
  956 2.160 1.850  2.470 1.000 1.00000 2.160 1.000      4.332  23.000
  957 2.130 1.823  2.437 1.000 1.00000 2.130 1.000      3.098  23.000
  958 2.200 1.886  2.514 1.000 1.00000 2.200 1.000      4.446  23.000
  959 2.130 1.823  2.437 1.000 1.00000 2.130 1.000      4.363  23.000
  960 2.140 1.832  2.448 1.000 1.00000 2.140 1.000      2.537  23.000
  961 2.150 1.841  2.459 1.000 1.00000 2.150 1.000      2.065  23.000
  962 2.150 1.841  2.459 1.000 1.00000 2.150 1.000      2.365  23.000
  963 2.140 1.832  2.448 1.000 1.00000 2.130 1.000      2.816  23.000
  964 2.150 1.841  2.459 1.000 1.00000 2.150 1.000      4.314  23.000
  965 2.150 1.841  2.459 1.000 1.00000 2.150 1.000      4.387  23.000
  966 2.130 1.823  2.437 1.000 1.00000 2.130 1.000      5.329  23.000
  967 2.170 1.859  2.481 1.000 1.00000 2.170 1.000      1.890  23.000
  968 2.200 1.886  2.514 1.000 1.00000 2.200 1.000      5.805  23.000
  969 2.150 1.841  2.459 1.000 1.00000 2.150 1.000      3.504  23.000
  970 2.140 1.832  2.448 1.000 1.00000 2.150 1.000      2.059  23.000
  971 2.170 1.859  2.481 1.000 1.00000 2.160 1.000      2.026  23.000
  972 2.130 1.823  2.437 1.000 1.00000 2.130 1.000      4.541  23.000
  973 2.160 1.850  2.470 1.000 1.00000 2.160 1.000      2.766  23.000
  974 2.130 1.823  2.437 1.000 1.00000 2.130 1.000      3.162  23.000
  975 2.170 1.859  2.481 1.000 1.00000 2.170 1.000      1.933  23.000
  976 2.150 1.841  2.459 1.000 1.00000 2.150 1.000      2.472  23.000
  977 2.180 1.868  2.492 1.000 1.00000 2.180 1.000      2.950  23.000
  978 2.120 1.814  2.426 1.000 1.00000 2.120 1.000      6.519  23.000
  979 2.150 1.841  2.459 1.000 1.00000 2.150 1.000      3.963  23.000
  980 2.110 1.805  2.415 1.000 1.00000 2.120 1.000      9.485  23.000
  981 2.130 1.823  2.437 1.000 1.00000 2.130 1.000      3.841  23.000
  982 2.150 1.841  2.459 1.000 1.00000 2.150 1.000      2.656  23.000
  983 2.170 1.859  2.481 1.000 1.00000 2.170 1.000      1.838  23.000
  984 2.180 1.868  2.492 1.000 1.00000 2.170 1.000      2.157  23.000
  985 2.180 1.868  2.492 1.000 1.00000 2.170 1.000      2.318  23.000
  986 2.150 1.841  2.459 1.000 1.00000 2.150 1.000      3.603  23.000
  987 2.130 1.823  2.437 1.000 1.00000 2.130 1.000      5.044  23.000
  988 2.180 1.868  2.492 1.000 1.00000 2.170 1.000      2.175  23.000
  989 2.150 1.841  2.459 1.000 1.00000 2.150 1.000      2.273  23.000
  990 2.150 1.841  2.459 1.000 1.00000 2.150 1.000      4.908  23.000
  991 2.150 1.841  2.459 1.000 1.00000 2.150 1.000      2.747  23.000
  992 2.160 1.850  2.470 1.000 1.00000 2.160 1.000      2.924  23.000
  993 2.180 1.868  2.492 1.000 1.00000 2.180 1.000      2.475  23.000
  994 2.160 1.850  2.470 1.000 1.00000 2.160 1.000      2.844  23.000
  995 2.130 1.823  2.437 1.000 1.00000 2.130 1.000      4.012  23.000
  996 2.110 1.805  2.415 1.000 1.00000 2.120 1.000      9.683  23.000
  997 2.150 1.841  2.459 1.000 1.00000 2.150 1.000      2.048  23.000
  998 2.160 1.850  2.470 1.000 1.00000 2.160 1.000      3.705  23.000
  999 2.150 1.841  2.459 1.000 1.00000 2.150 1.000      2.197  23.000
 1000 2.160 1.850  2.470 1.000 1.00000 2.160 1.000      3.495  23.000
 1001 2.160 1.850  2.470 1.000 1.00000 2.160 1.000      2.320  23.000
 1002 2.170 1.859  2.481 1.000 1.00000 2.160 1.000      1.852  23.000
 1003 2.150 1.841  2.459 1.000 1.00000 2.150 1.000      4.881  23.000
 1004 2.260 1.941  2.579 1.000 1.00000 2.260 1.000     13.720  23.000
 1005 2.140 1.832  2.448 1.000 1.00000 2.150 1.000      2.093  23.000
 1006 2.150 1.841  2.459 1.000 1.00000 2.150 1.000      2.147  23.000
 1007 2.200 1.886  2.514 1.000 1.00000 2.210 1.000      6.201  23.000
 1008 2.160 1.850  2.470 1.000 1.00000 2.160 1.000      3.662  23.000
 1009 2.130 1.823  2.437 1.000 1.00000 2.130 1.000      3.026  23.000
 1010 2.260 1.941  2.579 1.000 1.00000 2.260 1.000     12.047  23.000
 1011 2.150 1.841  2.459 1.000 1.00000 2.150 1.000      2.451  23.000
 1012 2.160 1.850  2.470 1.000 1.00000 2.160 1.000      2.069  23.000
 1013 2.120 1.814  2.426 1.000 1.00000 2.130 1.000      6.063  23.000
 1014 2.160 1.850  2.470 1.000 1.00000 2.160 1.000      3.435  23.000
 1015 2.140 1.832  2.448 1.000 1.00000 2.150 1.000      2.142  23.000
 1016 2.150 1.841  2.459 1.000 1.00000 2.150 1.000      4.908  23.000
 1017 2.120 1.814  2.426 1.000 1.00000 2.120 1.000      8.685  23.000
 1018 2.150 1.841  2.459 1.000 1.00000 2.150 1.000      3.107  23.000
 1019 2.170 1.859  2.481 1.000 1.00000 2.170 1.000      2.035  23.000
 1020 2.140 1.832  2.448 1.000 1.00000 2.140 1.000      2.562  23.000
 1021 2.130 1.823  2.437 1.000 1.00000 2.130 1.000      5.303  23.000
 1022 2.130 1.823  2.437 1.000 1.00000 2.130 1.000      3.897  23.000
 1023 2.150 1.841  2.459 1.000 1.00000 2.150 1.000      2.356  23.000
 1024 2.180 1.868  2.492 1.000 1.00000 2.180 1.000      2.849  23.000
 1025 2.120 1.814  2.426 1.000 1.00000 2.120 1.000      8.146  23.000
 1026 2.120 1.814  2.426 1.000 1.00000 2.120 1.000      6.724  23.000
 1027 2.150 1.841  2.459 1.000 1.00000 2.150 1.000      2.462  23.000
 1028 2.150 1.841  2.459 1.000 1.00000 2.150 1.000      4.487  23.000
 1029 2.150 1.841  2.459 1.000 1.00000 2.150 1.000      2.152  23.000
 1030 2.130 1.823  2.437 1.000 1.00000 2.130 1.000      5.630  23.000
 1031 2.170 1.859  2.481 1.000 1.00000 2.170 1.000      1.976  23.000
 1032 2.150 1.841  2.459 1.000 1.00000 2.150 1.000      5.103  23.000
 1033 2.160 1.850  2.470 1.000 1.00000 2.160 1.000      4.408  23.000
 1034 2.150 1.841  2.459 1.000 1.00000 2.150 1.000      2.049  23.000
 1035 2.120 1.814  2.426 1.000 1.00000 2.130 1.000      6.213  23.000
 1036 2.130 1.823  2.437 1.000 1.00000 2.130 1.000      2.980  23.000
 1037 2.130 1.823  2.437 1.000 1.00000 2.130 1.000      4.072  23.000
 1038 2.130 1.823  2.437 1.000 1.00000 2.130 1.000      3.715  23.000
 1039 2.130 1.823  2.437 1.000 1.00000 2.130 1.000      4.919  23.000
 1040 2.260 1.941  2.579 1.000 1.00000 2.260 1.000     13.446  23.000
 1041 2.180 1.868  2.492 1.000 1.00000 2.180 1.000      2.628  23.000
 1042 2.150 1.841  2.459 1.000 1.00000 2.150 1.000      4.077  23.000
 1043 2.200 1.886  2.514 1.000 1.00000 2.210 1.000      6.439  23.000
 1044 2.150 1.841  2.459 1.000 1.00000 2.150 1.000      2.571  23.000
 1045 2.260 1.941  2.579 1.000 1.00000 2.260 1.000     15.932  23.000
 1046 2.150 1.841  2.459 1.000 1.00000 2.150 1.000      3.227  23.000
 1047 2.130 1.823  2.437 1.000 1.00000 2.130 1.000      4.969  23.000
 1048 2.130 1.823  2.437 1.000 1.00000 2.130 1.000      5.224  23.000
 1049 2.200 1.886  2.514 1.000 1.00000 2.200 1.000      4.691  23.000
 1050 2.160 1.850  2.470 1.000 1.00000 2.160 1.000      4.510  23.000
 1051 2.170 1.859  2.481 1.000 1.00000 2.170 1.000      1.846  23.000
 1052 2.140 1.832  2.448 1.000 1.00000 2.130 1.000      2.835  23.000
 1053 2.150 1.841  2.459 1.000 1.00000 2.150 1.000      4.265  23.000
 1054 2.140 1.832  2.448 1.000 1.00000 2.150 1.000      2.111  23.000
 1055 2.130 1.823  2.437 1.000 1.00000 2.130 1.000      4.609  23.000
 1056 2.140 1.832  2.448 1.000 1.00000 2.150 1.000      2.217  23.000
 1057 2.160 1.850  2.470 1.000 1.00000 2.160 1.000      2.538  23.000
 1058 2.130 1.823  2.437 1.000 1.00000 2.130 1.000      3.715  23.000
 1059 2.180 1.868  2.492 1.000 1.00000 2.180 1.000      2.456  23.000
 1060 2.130 1.823  2.437 1.000 1.00000 2.130 1.000      3.935  23.000
 1061 2.160 1.850  2.470 1.000 1.00000 2.160 1.000      2.353  23.000
 1062 2.140 1.832  2.448 1.000 1.00000 2.130 1.000      2.664  23.000
 1063 2.150 1.841  2.459 1.000 1.00000 2.150 1.000      2.402  23.000
 1064 2.150 1.841  2.459 1.000 1.00000 2.150 1.000      2.258  23.000
 1065 2.210 1.895  2.525 1.000 1.00000 2.210 1.000      8.725  23.000
 1066 2.160 1.850  2.470 1.000 1.00000 2.160 1.000      2.606  23.000
 1067 2.170 1.859  2.481 1.000 1.00000 2.170 1.000      1.843  23.000
 1068 2.130 1.823  2.437 1.000 1.00000 2.130 1.000      3.175  23.000
 1069 2.150 1.841  2.459 1.000 1.00000 2.150 1.000      2.119  23.000
 1070 2.150 1.841  2.459 1.000 1.00000 2.150 1.000      2.515  23.000
 1071 2.170 1.859  2.481 1.000 1.00000 2.170 1.000      1.901  23.000
 1072 2.120 1.814  2.426 1.000 1.00000 2.120 1.000      6.843  23.000
 1073 2.150 1.841  2.459 1.000 1.00000 2.150 1.000      2.106  23.000
 1074 2.160 1.850  2.470 1.000 1.00000 2.160 1.000      2.620  23.000
 1075 2.130 1.823  2.437 1.000 1.00000 2.130 1.000      4.496  23.000
 1076 2.150 1.841  2.459 1.000 1.00000 2.150 1.000      3.371  23.000
 1077 2.150 1.841  2.459 1.000 1.00000 2.150 1.000      2.056  23.000
 1078 2.160 1.850  2.470 1.000 1.00000 2.160 1.000      2.151  23.000
 1079 2.180 1.868  2.492 1.000 1.00000 2.180 1.000      2.582  23.000
 1080 2.160 1.850  2.470 1.000 1.00000 2.160 1.000      2.320  23.000
 1081 2.110 1.805  2.415 1.000 1.00000 2.100 1.000     11.972  23.000
 1082 2.160 1.850  2.470 1.000 1.00000 2.160 1.000      4.042  23.000
 1083 2.140 1.832  2.448 1.000 1.00000 2.140 1.000      2.498  23.000
 1084 2.160 1.850  2.470 1.000 1.00000 2.160 1.000      2.892  23.000
 1085 2.170 1.859  2.481 1.000 1.00000 2.160 1.000      1.864  23.000
 1086 2.150 1.841  2.459 1.000 1.00000 2.150 1.000      2.994  23.000
 1087 2.130 1.823  2.437 1.000 1.00000 2.130 1.000      5.630  23.000
 1088 2.160 1.850  2.470 1.000 1.00000 2.160 1.000      2.606  23.000
 1089 2.180 1.868  2.492 1.000 1.00000 2.170 1.000      2.296  23.000
 1090 2.160 1.850  2.470 1.000 1.00000 2.160 1.000      4.408  23.000
 1091 2.150 1.841  2.459 1.000 1.00000 2.150 1.000      2.062  23.000
 1092 2.180 1.868  2.492 1.000 1.00000 2.170 1.000      2.254  23.000
 1093 2.140 1.832  2.448 1.000 1.00000 2.150 1.000      2.338  23.000
 1094 2.140 1.832  2.448 1.000 1.00000 2.150 1.000      2.313  23.000
 1095 2.140 1.832  2.448 1.000 1.00000 2.150 1.000      2.061  23.000
 1096 2.130 1.823  2.437 1.000 1.00000 2.130 1.000      3.358  23.000
 1097 2.130 1.823  2.437 1.000 1.00000 2.130 1.000      3.715  23.000
 1098 2.150 1.841  2.459 1.000 1.00000 2.150 1.000      2.694  23.000
 1099 2.170 1.859  2.481 1.000 1.00000 2.170 1.000      1.865  23.000
 1100 2.160 1.850  2.470 1.000 1.00000 2.160 1.000      2.499  23.000
 1101 2.150 1.841  2.459 1.000 1.00000 2.150 1.000      2.644  23.000
 1102 2.170 1.859  2.481 1.000 1.00000 2.170 1.000      2.121  23.000
 1103 2.160 1.850  2.470 1.000 1.00000 2.160 1.000      4.382  23.000
 1104 2.170 1.859  2.481 1.000 1.00000 2.160 1.000      1.854  23.000
 1105 2.170 1.859  2.481 1.000 1.00000 2.160 1.000      1.844  23.000
 1106 2.170 1.859  2.481 1.000 1.00000 2.170 1.000      1.959  23.000
 1107 2.210 1.895  2.525 1.000 1.00000 2.210 1.000      7.277  23.000
 1108 2.130 1.823  2.437 1.000 1.00000 2.130 1.000      4.132  23.000
 1109 2.150 1.841  2.459 1.000 1.00000 2.150 1.000      2.392  23.000
 1110 2.160 1.850  2.470 1.000 1.00000 2.160 1.000      3.927  23.000
 1111 2.130 1.823  2.437 1.000 1.00000 2.130 1.000      4.750  23.000
 1112 2.140 1.832  2.448 1.000 1.00000 2.130 1.000      2.692  23.000
 1113 2.130 1.823  2.437 1.000 1.00000 2.130 1.000      5.250  23.000
 1114 2.140 1.832  2.448 1.000 1.00000 2.130 1.000      2.874  23.000
 1115 2.150 1.841  2.459 1.000 1.00000 2.150 1.000      2.571  23.000
 1116 2.160 1.850  2.470 1.000 1.00000 2.160 1.000      4.536  23.000
 1117 2.150 1.841  2.459 1.000 1.00000 2.150 1.000      3.897  23.000
 1118 2.160 1.850  2.470 1.000 1.00000 2.160 1.000      4.042  23.000
 1119 2.170 1.859  2.481 1.000 1.00000 2.170 1.000      1.905  23.000
 1120 2.170 1.859  2.481 1.000 1.00000 2.170 1.000      1.976  23.000
 1121 2.200 1.886  2.514 1.000 1.00000 2.200 1.000      5.888  23.000
 1122 2.160 1.850  2.470 1.000 1.00000 2.160 1.000      4.283  23.000
 1123 2.190 1.877  2.503 1.000 1.00000 2.190 1.000      4.138  23.000
 1124 2.150 1.841  2.459 1.000 1.00000 2.150 1.000      2.095  23.000
 1125 2.150 1.841  2.459 1.000 1.00000 2.150 1.000      3.074  23.000
 1126 2.140 1.832  2.448 1.000 1.00000 2.140 1.000      2.456  23.000
 1127 2.160 1.850  2.470 1.000 1.00000 2.160 1.000      3.973  23.000
 1128 2.150 1.841  2.459 1.000 1.00000 2.150 1.000      2.631  23.000
 1129 2.160 1.850  2.470 1.000 1.00000 2.160 1.000      4.258  23.000
 1130 2.140 1.832  2.448 1.000 1.00000 2.140 1.000      2.436  23.000
 1131 2.150 1.841  2.459 1.000 1.00000 2.150 1.000      2.330  23.000
 1132 2.130 1.823  2.437 1.000 1.00000 2.130 1.000      3.136  23.000
 1133 2.160 1.850  2.470 1.000 1.00000 2.160 1.000      4.209  23.000
 1134 2.160 1.850  2.470 1.000 1.00000 2.160 1.000      2.706  23.000
 1135 2.130 1.823  2.437 1.000 1.00000 2.130 1.000      3.663  23.000
 1136 2.160 1.850  2.470 1.000 1.00000 2.160 1.000      2.246  23.000
 1137 2.150 1.841  2.459 1.000 1.00000 2.150 1.000      2.048  23.000
 1138 2.140 1.832  2.448 1.000 1.00000 2.130 1.000      2.651  23.000
 1139 2.160 1.850  2.470 1.000 1.00000 2.160 1.000      2.353  23.000
 1140 2.140 1.832  2.448 1.000 1.00000 2.150 1.000      2.048  23.000
 1141 2.140 1.832  2.448 1.000 1.00000 2.130 1.000      2.625  23.000
 1142 2.150 1.841  2.459 1.000 1.00000 2.150 1.000      3.963  23.000
 1143 2.140 1.832  2.448 1.000 1.00000 2.140 1.000      2.462  23.000
 1144 2.170 1.859  2.481 1.000 1.00000 2.170 1.000      1.840  23.000
 1145 2.140 1.832  2.448 1.000 1.00000 2.150 1.000      2.163  23.000
 1146 2.180 1.868  2.492 1.000 1.00000 2.180 1.000      2.605  23.000
 1147 2.140 1.832  2.448 1.000 1.00000 2.150 1.000      2.330  23.000
 1148 2.140 1.832  2.448 1.000 1.00000 2.140 1.000      2.430  23.000
 1149 2.200 1.886  2.514 1.000 1.00000 2.210 1.000      6.412  23.000
 1150 2.260 1.941  2.579 1.000 1.00000 2.260 1.000     19.508  23.000
 1151 2.150 1.841  2.459 1.000 1.00000 2.150 1.000      3.853  23.000
 1152 2.150 1.841  2.459 1.000 1.00000 2.150 1.000      3.058  23.000
 1153 2.180 1.868  2.492 1.000 1.00000 2.180 1.000      2.465  23.000
 1154 2.170 1.859  2.481 1.000 1.00000 2.170 1.000      1.953  23.000
 1155 2.210 1.895  2.525 1.000 1.00000 2.210 1.000     10.171  23.000
 1156 2.160 1.850  2.470 1.000 1.00000 2.160 1.000      3.792  23.000
 1157 2.160 1.850  2.470 1.000 1.00000 2.160 1.000      2.473  23.000
 1158 2.150 1.841  2.459 1.000 1.00000 2.150 1.000      2.321  23.000
 1159 2.160 1.850  2.470 1.000 1.00000 2.160 1.000      4.588  23.000
 1160 2.180 1.868  2.492 1.000 1.00000 2.170 1.000      2.166  23.000
 1161 2.150 1.841  2.459 1.000 1.00000 2.150 1.000      2.631  23.000
 1162 2.170 1.859  2.481 1.000 1.00000 2.170 1.000      2.139  23.000
 1163 2.140 1.832  2.448 1.000 1.00000 2.130 1.000      2.826  23.000
 1164 2.150 1.841  2.459 1.000 1.00000 2.150 1.000      2.273  23.000
 1165 2.130 1.823  2.437 1.000 1.00000 2.130 1.000      4.750  23.000
 1166 2.180 1.868  2.492 1.000 1.00000 2.180 1.000      2.538  23.000
 1167 2.160 1.850  2.470 1.000 1.00000 2.160 1.000      2.353  23.000
 1168 2.160 1.850  2.470 1.000 1.00000 2.160 1.000      4.801  23.000
 1169 2.160 1.850  2.470 1.000 1.00000 2.160 1.000      3.837  23.000
 1170 2.190 1.877  2.503 1.000 1.00000 2.190 1.000      3.159  23.000
 1171 2.160 1.850  2.470 1.000 1.00000 2.160 1.000      5.050  23.000
 1172 2.170 1.859  2.481 1.000 1.00000 2.170 1.000      1.838  23.000
 1173 2.140 1.832  2.448 1.000 1.00000 2.130 1.000      2.780  23.000
 1174 2.150 1.841  2.459 1.000 1.00000 2.150 1.000      2.049  23.000
 1175 2.160 1.850  2.470 1.000 1.00000 2.160 1.000      2.309  23.000
 1176 2.150 1.841  2.459 1.000 1.00000 2.150 1.000      3.316  23.000
 1177 2.150 1.841  2.459 1.000 1.00000 2.150 1.000      2.515  23.000
 1178 2.140 1.832  2.448 1.000 1.00000 2.150 1.000      2.251  23.000
 1179 2.170 1.859  2.481 1.000 1.00000 2.160 1.000      1.849  23.000
 1180 2.150 1.841  2.459 1.000 1.00000 2.150 1.000      2.734  23.000
 1181 2.160 1.850  2.470 1.000 1.00000 2.160 1.000      2.924  23.000
 1182 2.160 1.850  2.470 1.000 1.00000 2.150 1.000      5.160  23.000
 1183 2.140 1.832  2.448 1.000 1.00000 2.150 1.000      2.281  23.000
 1184 2.200 1.886  2.514 1.000 1.00000 2.200 1.000      5.070  23.000
 1185 2.160 1.850  2.470 1.000 1.00000 2.160 1.000      3.536  23.000
 1186 2.150 1.841  2.459 1.000 1.00000 2.150 1.000      3.684  23.000
 1187 2.170 1.859  2.481 1.000 1.00000 2.160 1.000      1.933  23.000
 1188 2.140 1.832  2.448 1.000 1.00000 2.150 1.000      2.051  23.000
 1189 2.100 1.796  2.404 1.000 1.00000 2.100 1.000     13.197  23.000
 1190 2.130 1.823  2.437 1.000 1.00000 2.130 1.000      5.329  23.000
 1191 2.180 1.868  2.492 1.000 1.00000 2.180 1.000      2.475  23.000
 1192 2.160 1.850  2.470 1.000 1.00000 2.160 1.000      3.241  23.000
 1193 2.160 1.850  2.470 1.000 1.00000 2.160 1.000      2.188  23.000
 1194 2.140 1.832  2.448 1.000 1.00000 2.130 1.000      2.874  23.000
 1195 2.220 1.904  2.536 1.000 1.00000 2.210 1.000     11.478  23.000
 1196 2.210 1.895  2.525 1.000 1.00000 2.210 1.000      7.034  23.000
 1197 2.170 1.859  2.481 1.000 1.00000 2.170 1.000      1.862  23.000
 1198 2.120 1.814  2.426 1.000 1.00000 2.130 1.000      6.122  23.000
 1199 2.130 1.823  2.437 1.000 1.00000 2.130 1.000      3.175  23.000
 1200 2.150 1.841  2.459 1.000 1.00000 2.150 1.000      2.103  23.000
 1201 2.160 1.850  2.470 1.000 1.00000 2.160 1.000      4.910  23.000
 1202 2.160 1.850  2.470 1.000 1.00000 2.160 1.000      2.499  23.000
 1203 2.160 1.850  2.470 1.000 1.00000 2.160 1.000      4.408  23.000
 1204 2.140 1.832  2.448 1.000 1.00000 2.130 1.000      2.780  23.000
 1205 2.130 1.823  2.437 1.000 1.00000 2.130 1.000      3.285  23.000
 1206 2.150 1.841  2.459 1.000 1.00000 2.150 1.000      4.412  23.000
 1207 2.210 1.895  2.525 1.000 1.00000 2.210 1.000      9.405  23.000
 1208 2.150 1.841  2.459 1.000 1.00000 2.150 1.000      3.058  23.000
 1209 2.130 1.823  2.437 1.000 1.00000 2.130 1.000      5.303  23.000
 1210 2.150 1.841  2.459 1.000 1.00000 2.150 1.000      4.773  23.000
 1211 2.140 1.832  2.448 1.000 1.00000 2.150 1.000      2.338  23.000
 1212 2.130 1.823  2.437 1.000 1.00000 2.130 1.000      3.529  23.000
 1213 2.150 1.841  2.459 1.000 1.00000 2.150 1.000      2.054  23.000
 1214 2.160 1.850  2.470 1.000 1.00000 2.160 1.000      2.287  23.000
 1215 2.150 1.841  2.459 1.000 1.00000 2.150 1.000      2.048  23.000
 1216 2.130 1.823  2.437 1.000 1.00000 2.130 1.000      4.994  23.000
 1217 2.150 1.841  2.459 1.000 1.00000 2.150 1.000      4.437  23.000
 1218 2.150 1.841  2.459 1.000 1.00000 2.150 1.000      2.607  23.000
 1219 2.200 1.886  2.514 1.000 1.00000 2.200 1.000      5.618  23.000
 1220 2.140 1.832  2.448 1.000 1.00000 2.150 1.000      2.133  23.000
 1221 2.190 1.877  2.503 1.000 1.00000 2.190 1.000      4.266  23.000
 1222 2.140 1.832  2.448 1.000 1.00000 2.150 1.000      2.411  23.000
 1223 2.140 1.832  2.448 1.000 1.00000 2.150 1.000      2.124  23.000
 1224 2.130 1.823  2.437 1.000 1.00000 2.130 1.000      2.894  23.000
 1225 2.170 1.859  2.481 1.000 1.00000 2.160 1.000      1.884  23.000
 1226 2.110 1.805  2.415 1.000 1.00000 2.100 1.000     10.520  23.000
 1227 2.260 1.941  2.579 1.000 1.00000 2.260 1.000     14.569  23.000
 1228 2.150 1.841  2.459 1.000 1.00000 2.150 1.000      2.483  23.000
 1229 2.150 1.841  2.459 1.000 1.00000 2.150 1.000      2.338  23.000
 1230 2.180 1.868  2.492 1.000 1.00000 2.170 1.000      2.254  23.000
 1231 2.140 1.832  2.448 1.000 1.00000 2.130 1.000      2.789  23.000
 1232 2.110 1.805  2.415 1.000 1.00000 2.100 1.000     10.848  23.000
 1233 2.150 1.841  2.459 1.000 1.00000 2.150 1.000      2.289  23.000
 1234 2.120 1.814  2.426 1.000 1.00000 2.130 1.000      5.857  23.000
 1235 2.140 1.832  2.448 1.000 1.00000 2.150 1.000      2.072  23.000
 1236 2.120 1.814  2.426 1.000 1.00000 2.120 1.000      8.323  23.000
 1237 2.160 1.850  2.470 1.000 1.00000 2.150 1.000      5.160  23.000
 1238 2.170 1.859  2.481 1.000 1.00000 2.160 1.000      1.858  23.000
 1239 2.160 1.850  2.470 1.000 1.00000 2.160 1.000      2.751  23.000
 1240 2.160 1.850  2.470 1.000 1.00000 2.160 1.000      2.844  23.000
 1241 2.170 1.859  2.481 1.000 1.00000 2.170 1.000      1.838  23.000
 1242 2.140 1.832  2.448 1.000 1.00000 2.130 1.000      2.772  23.000
 1243 2.160 1.850  2.470 1.000 1.00000 2.160 1.000      3.578  23.000
 1244 2.130 1.823  2.437 1.000 1.00000 2.130 1.000      4.919  23.000
 1245 2.160 1.850  2.470 1.000 1.00000 2.160 1.000      5.135  23.000
 1246 2.150 1.841  2.459 1.000 1.00000 2.150 1.000      4.773  23.000
 1247 2.150 1.841  2.459 1.000 1.00000 2.150 1.000      2.760  23.000
 1248 2.130 1.823  2.437 1.000 1.00000 2.130 1.000      4.994  23.000
 1249 2.150 1.841  2.459 1.000 1.00000 2.150 1.000      2.462  23.000
 1250 2.210 1.895  2.525 1.000 1.00000 2.210 1.000      7.464  23.000
 1251 2.110 1.805  2.415 1.000 1.00000 2.100 1.000     11.652  23.000
 1252 2.170 1.859  2.481 1.000 1.00000 2.170 1.000      1.839  23.000
 1253 2.140 1.832  2.448 1.000 1.00000 2.130 1.000      2.798  23.000
 1254 2.260 1.941  2.579 1.000 1.00000 2.260 1.000     13.050  23.000
 1255 2.260 1.941  2.579 1.000 1.00000 2.260 1.000     12.361  23.000
 1256 2.160 1.850  2.470 1.000 1.00000 2.160 1.000      3.078  23.000
 1257 2.120 1.814  2.426 1.000 1.00000 2.130 1.000      5.915  23.000
 1258 2.130 1.823  2.437 1.000 1.00000 2.130 1.000      3.804  23.000
 1259 2.170 1.859  2.481 1.000 1.00000 2.170 1.000      2.121  23.000
 1260 2.200 1.886  2.514 1.000 1.00000 2.200 1.000      5.411  23.000
 1261 2.260 1.941  2.579 1.000 1.00000 2.260 1.000     13.765  23.000
 1262 2.130 1.823  2.437 1.000 1.00000 2.130 1.000      4.012  23.000
 1263 2.150 1.841  2.459 1.000 1.00000 2.150 1.000      2.681  23.000
 1264 2.190 1.877  2.503 1.000 1.00000 2.200 1.000      4.369  23.000
 1265 2.130 1.823  2.437 1.000 1.00000 2.130 1.000      3.314  23.000
 1266 2.140 1.832  2.448 1.000 1.00000 2.150 1.000      2.049  23.000
 1267 2.130 1.823  2.437 1.000 1.00000 2.130 1.000      4.277  23.000
 1268 2.180 1.868  2.492 1.000 1.00000 2.180 1.000      2.793  23.000
 1269 2.140 1.832  2.448 1.000 1.00000 2.140 1.000      2.430  23.000
 1270 2.140 1.832  2.448 1.000 1.00000 2.150 1.000      2.204  23.000
 1271 2.140 1.832  2.448 1.000 1.00000 2.140 1.000      2.545  23.000
 1272 2.130 1.823  2.437 1.000 1.00000 2.130 1.000      3.612  23.000
 1273 2.100 1.796  2.404 1.000 1.00000 2.100 1.000     12.425  23.000
 1274 2.160 1.850  2.470 1.000 1.00000 2.160 1.000      4.667  23.000
 1275 2.120 1.814  2.426 1.000 1.00000 2.130 1.000      5.944  23.000
 1276 2.130 1.823  2.437 1.000 1.00000 2.130 1.000      3.123  23.000
 1277 2.160 1.850  2.470 1.000 1.00000 2.160 1.000      3.376  23.000
 1278 2.170 1.859  2.481 1.000 1.00000 2.160 1.000      1.975  23.000
 1279 2.160 1.850  2.470 1.000 1.00000 2.150 1.000      5.131  23.000
 1280 2.170 1.859  2.481 1.000 1.00000 2.160 1.000      1.843  23.000
 1281 2.150 1.841  2.459 1.000 1.00000 2.150 1.000      2.493  23.000
 1282 2.170 1.859  2.481 1.000 1.00000 2.170 1.000      2.121  23.000
 1283 2.150 1.841  2.459 1.000 1.00000 2.150 1.000      3.583  23.000
 1284 2.130 1.823  2.437 1.000 1.00000 2.130 1.000      5.491  23.000
 1285 2.100 1.796  2.404 1.000 1.00000 2.100 1.000     14.858  23.000
 1286 2.200 1.886  2.514 1.000 1.00000 2.200 1.000      5.833  23.000
 1287 2.120 1.814  2.426 1.000 1.00000 2.120 1.000      8.796  23.000
 1288 2.130 1.823  2.437 1.000 1.00000 2.130 1.000      2.894  23.000
 1289 2.140 1.832  2.448 1.000 1.00000 2.130 1.000      2.816  23.000
 1290 2.140 1.832  2.448 1.000 1.00000 2.150 1.000      2.067  23.000
 1291 2.150 1.841  2.459 1.000 1.00000 2.150 1.000      4.054  23.000
 1292 2.160 1.850  2.470 1.000 1.00000 2.160 1.000      2.512  23.000
 1293 2.160 1.850  2.470 1.000 1.00000 2.160 1.000      2.924  23.000
 1294 2.130 1.823  2.437 1.000 1.00000 2.130 1.000      4.277  23.000
 1295 2.170 1.859  2.481 1.000 1.00000 2.160 1.000      1.895  23.000
 1296 2.170 1.859  2.481 1.000 1.00000 2.170 1.000      1.839  23.000
 1297 2.150 1.841  2.459 1.000 1.00000 2.150 1.000      3.623  23.000
 1298 2.140 1.832  2.448 1.000 1.00000 2.130 1.000      2.807  23.000
 1299 2.120 1.814  2.426 1.000 1.00000 2.120 1.000      8.252  23.000
 1300 2.150 1.841  2.459 1.000 1.00000 2.150 1.000      2.734  23.000
 1301 2.140 1.832  2.448 1.000 1.00000 2.150 1.000      2.048  23.000
 1302 2.140 1.832  2.448 1.000 1.00000 2.140 1.000      2.484  23.000
 1303 2.140 1.832  2.448 1.000 1.00000 2.130 1.000      2.625  23.000
 1304 2.170 1.859  2.481 1.000 1.00000 2.160 1.000      2.019  23.000
 1305 2.160 1.850  2.470 1.000 1.00000 2.160 1.000      3.078  23.000
 1306 2.150 1.841  2.459 1.000 1.00000 2.150 1.000      2.297  23.000
 1307 2.170 1.859  2.481 1.000 1.00000 2.170 1.000      1.842  23.000
 1308 2.130 1.823  2.437 1.000 1.00000 2.130 1.000      3.578  23.000
 1309 2.140 1.832  2.448 1.000 1.00000 2.150 1.000      2.147  23.000
 1310 2.190 1.877  2.503 1.000 1.00000 2.190 1.000      3.975  23.000
 1311 2.130 1.823  2.437 1.000 1.00000 2.130 1.000      4.235  23.000
 1312 2.130 1.823  2.437 1.000 1.00000 2.130 1.000      2.894  23.000
 1313 2.140 1.832  2.448 1.000 1.00000 2.140 1.000      2.579  23.000
 1314 2.160 1.850  2.470 1.000 1.00000 2.160 1.000      3.260  23.000
 1315 2.110 1.805  2.415 1.000 1.00000 2.100 1.000     11.972  23.000
 1316 2.260 1.941  2.579 1.000 1.00000 2.260 1.000     12.625  23.000
 1317 2.200 1.886  2.514 1.000 1.00000 2.210 1.000      6.074  23.000
 1318 2.140 1.832  2.448 1.000 1.00000 2.150 1.000      2.204  23.000
 1319 2.130 1.823  2.437 1.000 1.00000 2.130 1.000      5.172  23.000
 1320 2.160 1.850  2.470 1.000 1.00000 2.160 1.000      4.588  23.000
 1321 2.160 1.850  2.470 1.000 1.00000 2.160 1.000      2.412  23.000
 1322 2.160 1.850  2.470 1.000 1.00000 2.160 1.000      4.137  23.000
 1323 2.180 1.868  2.492 1.000 1.00000 2.180 1.000      2.652  23.000
 1324 2.170 1.859  2.481 1.000 1.00000 2.160 1.000      1.948  23.000
 1325 2.120 1.814  2.426 1.000 1.00000 2.120 1.000      8.394  23.000
 1326 2.150 1.841  2.459 1.000 1.00000 2.150 1.000      4.437  23.000
 1327 2.150 1.841  2.459 1.000 1.00000 2.150 1.000      4.746  23.000
 1328 2.160 1.850  2.470 1.000 1.00000 2.160 1.000      3.727  23.000
 1329 2.150 1.841  2.459 1.000 1.00000 2.150 1.000      3.603  23.000
 1330 2.200 1.886  2.514 1.000 1.00000 2.210 1.000      6.150  23.000
 1331 2.130 1.823  2.437 1.000 1.00000 2.130 1.000      3.449  23.000
 1332 2.150 1.841  2.459 1.000 1.00000 2.150 1.000      2.788  23.000
 1333 2.130 1.823  2.437 1.000 1.00000 2.130 1.000      5.198  23.000
 1334 2.140 1.832  2.448 1.000 1.00000 2.150 1.000      2.237  23.000
 1335 2.150 1.841  2.459 1.000 1.00000 2.150 1.000      3.446  23.000
 1336 2.140 1.832  2.448 1.000 1.00000 2.150 1.000      2.211  23.000
 1337 2.170 1.859  2.481 1.000 1.00000 2.160 1.000      1.844  23.000
 1338 2.210 1.895  2.525 1.000 1.00000 2.210 1.000      7.034  23.000
 1339 2.130 1.823  2.437 1.000 1.00000 2.130 1.000      3.954  23.000
 1340 2.150 1.841  2.459 1.000 1.00000 2.150 1.000      2.230  23.000
 1341 2.260 1.941  2.579 1.000 1.00000 2.260 1.000     12.505  23.000
 1342 2.120 1.814  2.426 1.000 1.00000 2.130 1.000      5.828  23.000
 1343 2.150 1.841  2.459 1.000 1.00000 2.150 1.000      2.281  23.000
 1344 2.130 1.823  2.437 1.000 1.00000 2.130 1.000      3.663  23.000
 1345 2.150 1.841  2.459 1.000 1.00000 2.150 1.000      2.656  23.000
 1346 2.170 1.859  2.481 1.000 1.00000 2.170 1.000      1.988  23.000
 1347 2.130 1.823  2.437 1.000 1.00000 2.130 1.000      3.049  23.000
 1348 2.150 1.841  2.459 1.000 1.00000 2.150 1.000      5.103  23.000
 1349 2.130 1.823  2.437 1.000 1.00000 2.130 1.000      2.915  23.000
 1350 2.170 1.859  2.481 1.000 1.00000 2.160 1.000      2.012  23.000
 1351 2.140 1.832  2.448 1.000 1.00000 2.150 1.000      2.047  23.000
 1352 2.140 1.832  2.448 1.000 1.00000 2.130 1.000      2.707  23.000
 1353 2.140 1.832  2.448 1.000 1.00000 2.140 1.000      2.456  23.000
 1354 2.120 1.814  2.426 1.000 1.00000 2.120 1.000      7.904  23.000
 1355 2.100 1.796  2.404 1.000 1.00000 2.100 1.000     14.334  23.000
 1356 2.210 1.895  2.525 1.000 1.00000 2.210 1.000      8.616  23.000
 1357 2.120 1.814  2.426 1.000 1.00000 2.120 1.000      7.602  23.000
 1358 2.170 1.859  2.481 1.000 1.00000 2.160 1.000      2.026  23.000
 1359 2.260 1.941  2.579 1.000 1.00000 2.260 1.000     18.423  23.000
 1360 2.160 1.850  2.470 1.000 1.00000 2.160 1.000      2.256  23.000
 1361 2.150 1.841  2.459 1.000 1.00000 2.150 1.000      2.119  23.000
 1362 2.150 1.841  2.459 1.000 1.00000 2.150 1.000      2.056  23.000
 1363 2.150 1.841  2.459 1.000 1.00000 2.150 1.000      2.537  23.000
 1364 2.170 1.859  2.481 1.000 1.00000 2.170 1.000      2.050  23.000
 1365 2.140 1.832  2.448 1.000 1.00000 2.150 1.000      2.107  23.000
 1366 2.150 1.841  2.459 1.000 1.00000 2.150 1.000      2.281  23.000
 1367 2.160 1.850  2.470 1.000 1.00000 2.160 1.000      3.599  23.000
 1368 2.140 1.832  2.448 1.000 1.00000 2.130 1.000      2.664  23.000
 1369 2.110 1.805  2.415 1.000 1.00000 2.100 1.000     10.029  23.000
 1370 2.150 1.841  2.459 1.000 1.00000 2.150 1.000      2.191  23.000
 1371 2.270 1.950  2.590 1.000 1.00000 2.260 1.000     28.674  23.000
 1372 2.160 1.850  2.470 1.000 1.00000 2.160 1.000      4.720  23.000
 1373 2.180 1.868  2.492 1.000 1.00000 2.180 1.000      2.996  23.000
 1374 2.150 1.841  2.459 1.000 1.00000 2.150 1.000      3.583  23.000
 1375 2.150 1.841  2.459 1.000 1.00000 2.150 1.000      3.427  23.000
 1376 2.170 1.859  2.481 1.000 1.00000 2.170 1.000      2.139  23.000
 1377 2.160 1.850  2.470 1.000 1.00000 2.160 1.000      3.435  23.000
 1378 2.120 1.814  2.426 1.000 1.00000 2.130 1.000      6.336  23.000
 1379 2.150 1.841  2.459 1.000 1.00000 2.150 1.000      3.603  23.000
 1380 2.260 1.941  2.579 1.000 1.00000 2.260 1.000     13.877  23.000
 1381 2.170 1.859  2.481 1.000 1.00000 2.170 1.000      1.905  23.000
 1382 2.110 1.805  2.415 1.000 1.00000 2.100 1.000     10.592  23.000
 1383 2.180 1.868  2.492 1.000 1.00000 2.180 1.000      2.996  23.000
 1384 2.160 1.850  2.470 1.000 1.00000 2.160 1.000      2.565  23.000
 1385 2.160 1.850  2.470 1.000 1.00000 2.160 1.000      2.188  23.000
 1386 2.200 1.886  2.514 1.000 1.00000 2.200 1.000      5.262  23.000
 1387 2.100 1.796  2.404 1.000 1.00000 2.100 1.000     13.153  23.000
 1388 2.120 1.814  2.426 1.000 1.00000 2.120 1.000      6.904  23.000
 1389 2.150 1.841  2.459 1.000 1.00000 2.150 1.000      2.061  23.000
 1390 2.170 1.859  2.481 1.000 1.00000 2.160 1.000      1.864  23.000
 1391 2.160 1.850  2.470 1.000 1.00000 2.160 1.000      3.683  23.000
 1392 2.150 1.841  2.459 1.000 1.00000 2.150 1.000      2.412  23.000
 1393 2.200 1.886  2.514 1.000 1.00000 2.210 1.000      6.049  23.000
 1394 2.170 1.859  2.481 1.000 1.00000 2.170 1.000      1.838  23.000
 1395 2.150 1.841  2.459 1.000 1.00000 2.150 1.000      2.273  23.000
 1396 2.150 1.841  2.459 1.000 1.00000 2.150 1.000      3.543  23.000
 1397 2.140 1.832  2.448 1.000 1.00000 2.150 1.000      2.093  23.000
 1398 2.160 1.850  2.470 1.000 1.00000 2.160 1.000      3.204  23.000
 1399 2.160 1.850  2.470 1.000 1.00000 2.160 1.000      4.090  23.000
 1400 2.150 1.841  2.459 1.000 1.00000 2.150 1.000      2.085  23.000
 1401 2.120 1.814  2.426 1.000 1.00000 2.130 1.000      6.429  23.000
 1402 2.150 1.841  2.459 1.000 1.00000 2.150 1.000      3.853  23.000
 1403 2.200 1.886  2.514 1.000 1.00000 2.200 1.000      5.697  23.000
 1404 2.160 1.850  2.470 1.000 1.00000 2.160 1.000      2.100  23.000
 1405 2.150 1.841  2.459 1.000 1.00000 2.150 1.000      2.059  23.000
 1406 2.150 1.841  2.459 1.000 1.00000 2.150 1.000      2.321  23.000
 1407 2.260 1.941  2.579 1.000 1.00000 2.260 1.000     16.900  23.000
 1408 2.160 1.850  2.470 1.000 1.00000 2.160 1.000      4.562  23.000
 1409 2.170 1.859  2.481 1.000 1.00000 2.170 1.000      1.873  23.000
 1410 2.140 1.832  2.448 1.000 1.00000 2.150 1.000      2.338  23.000
 1411 2.200 1.886  2.514 1.000 1.00000 2.200 1.000      4.865  23.000
 1412 2.110 1.805  2.415 1.000 1.00000 2.100 1.000     10.592  23.000
 1413 2.180 1.868  2.492 1.000 1.00000 2.180 1.000      2.496  23.000
 1414 2.160 1.850  2.470 1.000 1.00000 2.160 1.000      2.908  23.000
 1415 2.130 1.823  2.437 1.000 1.00000 2.130 1.000      4.895  23.000
 1416 2.210 1.895  2.525 1.000 1.00000 2.210 1.000      7.886  23.000
 1417 2.150 1.841  2.459 1.000 1.00000 2.150 1.000      3.832  23.000
 1418 2.140 1.832  2.448 1.000 1.00000 2.150 1.000      2.211  23.000
 1419 2.160 1.850  2.470 1.000 1.00000 2.160 1.000      2.974  23.000
 1420 2.150 1.841  2.459 1.000 1.00000 2.150 1.000      2.179  23.000
 1421 2.110 1.805  2.415 1.000 1.00000 2.100 1.000     11.891  23.000
 1422 2.190 1.877  2.503 1.000 1.00000 2.190 1.000      4.076  23.000
 1423 2.140 1.832  2.448 1.000 1.00000 2.150 1.000      2.049  23.000
 1424 2.150 1.841  2.459 1.000 1.00000 2.150 1.000      2.216  23.000
 1425 2.140 1.832  2.448 1.000 1.00000 2.150 1.000      2.056  23.000
 1426 2.150 1.841  2.459 1.000 1.00000 2.150 1.000      2.421  23.000
 1427 2.100 1.796  2.404 1.000 1.00000 2.100 1.000     12.013  23.000
 1428 2.140 1.832  2.448 1.000 1.00000 2.150 1.000      2.401  23.000
 1429 2.160 1.850  2.470 1.000 1.00000 2.160 1.000      2.677  23.000
 1430 2.130 1.823  2.437 1.000 1.00000 2.130 1.000      3.049  23.000
 1431 2.150 1.841  2.459 1.000 1.00000 2.150 1.000      2.203  23.000
 1432 2.170 1.859  2.481 1.000 1.00000 2.170 1.000      1.838  23.000
 1433 2.160 1.850  2.470 1.000 1.00000 2.160 1.000      4.938  23.000
 1434 2.210 1.895  2.525 1.000 1.00000 2.210 1.000      7.034  23.000
 1435 2.140 1.832  2.448 1.000 1.00000 2.140 1.000      2.506  23.000
 1436 2.150 1.841  2.459 1.000 1.00000 2.150 1.000      2.049  23.000
 1437 2.160 1.850  2.470 1.000 1.00000 2.160 1.000      2.461  23.000
 1438 2.150 1.841  2.459 1.000 1.00000 2.150 1.000      2.062  23.000
 1439 2.140 1.832  2.448 1.000 1.00000 2.140 1.000      2.418  23.000
 1440 2.160 1.850  2.470 1.000 1.00000 2.160 1.000      4.258  23.000
 1441 2.140 1.832  2.448 1.000 1.00000 2.130 1.000      2.763  23.000
 1442 2.150 1.841  2.459 1.000 1.00000 2.150 1.000      2.537  23.000
 1443 2.150 1.841  2.459 1.000 1.00000 2.150 1.000      2.079  23.000
 1444 2.170 1.859  2.481 1.000 1.00000 2.170 1.000      2.042  23.000
 1445 2.200 1.886  2.514 1.000 1.00000 2.210 1.000      6.603  23.000
 1446 2.150 1.841  2.459 1.000 1.00000 2.150 1.000      2.157  23.000
 1447 2.170 1.859  2.481 1.000 1.00000 2.170 1.000      1.840  23.000
 1448 2.160 1.850  2.470 1.000 1.00000 2.160 1.000      3.996  23.000
 1449 2.170 1.859  2.481 1.000 1.00000 2.170 1.000      2.050  23.000
 1450 2.130 1.823  2.437 1.000 1.00000 2.130 1.000      2.915  23.000
 1451 2.140 1.832  2.448 1.000 1.00000 2.130 1.000      2.613  23.000
 1452 2.180 1.868  2.492 1.000 1.00000 2.180 1.000      2.821  23.000
 1453 2.140 1.832  2.448 1.000 1.00000 2.130 1.000      2.707  23.000
 1454 2.160 1.850  2.470 1.000 1.00000 2.160 1.000      3.705  23.000
 1455 2.190 1.877  2.503 1.000 1.00000 2.190 1.000      3.878  23.000
 1456 2.160 1.850  2.470 1.000 1.00000 2.160 1.000      3.026  23.000
 1457 2.160 1.850  2.470 1.000 1.00000 2.160 1.000      4.747  23.000
 1458 2.140 1.832  2.448 1.000 1.00000 2.140 1.000      2.513  23.000
 1459 2.150 1.841  2.459 1.000 1.00000 2.150 1.000      4.881  23.000
 1460 2.150 1.841  2.459 1.000 1.00000 2.150 1.000      2.095  23.000
 1461 2.150 1.841  2.459 1.000 1.00000 2.150 1.000      2.903  23.000
 1462 2.120 1.814  2.426 1.000 1.00000 2.120 1.000      6.783  23.000
 1463 2.210 1.895  2.525 1.000 1.00000 2.210 1.000      6.829  23.000
 1464 2.170 1.859  2.481 1.000 1.00000 2.170 1.000      1.845  23.000
 1465 2.150 1.841  2.459 1.000 1.00000 2.150 1.000      4.963  23.000
 1466 2.140 1.832  2.448 1.000 1.00000 2.150 1.000      2.053  23.000
 1467 2.260 1.941  2.579 1.000 1.00000 2.260 1.000     12.697  23.000
 1468 2.140 1.832  2.448 1.000 1.00000 2.150 1.000      2.128  23.000
 1469 2.150 1.841  2.459 1.000 1.00000 2.150 1.000      2.237  23.000
 1470 2.140 1.832  2.448 1.000 1.00000 2.130 1.000      2.826  23.000
 1471 2.190 1.877  2.503 1.000 1.00000 2.190 1.000      3.214  23.000
 1472 2.150 1.841  2.459 1.000 1.00000 2.150 1.000      3.747  23.000
 1473 2.120 1.814  2.426 1.000 1.00000 2.120 1.000      8.648  23.000
 1474 2.260 1.941  2.579 1.000 1.00000 2.260 1.000     11.903  23.000
 1475 2.140 1.832  2.448 1.000 1.00000 2.150 1.000      2.192  23.000
 1476 2.170 1.859  2.481 1.000 1.00000 2.160 1.000      1.906  23.000
 1477 2.130 1.823  2.437 1.000 1.00000 2.130 1.000      2.884  23.000
 1478 2.170 1.859  2.481 1.000 1.00000 2.170 1.000      2.139  23.000
 1479 2.130 1.823  2.437 1.000 1.00000 2.130 1.000      5.464  23.000
 1480 2.210 1.895  2.525 1.000 1.00000 2.210 1.000      8.508  23.000
 1481 2.120 1.814  2.426 1.000 1.00000 2.130 1.000      6.398  23.000
 1482 2.140 1.832  2.448 1.000 1.00000 2.150 1.000      2.119  23.000
 1483 2.120 1.814  2.426 1.000 1.00000 2.120 1.000      7.470  23.000
 1484 2.120 1.814  2.426 1.000 1.00000 2.120 1.000      7.182  23.000
 1485 2.170 1.859  2.481 1.000 1.00000 2.160 1.000      1.953  23.000
 1486 2.160 1.850  2.470 1.000 1.00000 2.160 1.000      5.135  23.000
 1487 2.150 1.841  2.459 1.000 1.00000 2.150 1.000      2.421  23.000
 1488 2.260 1.941  2.579 1.000 1.00000 2.260 1.000     13.677  23.000
 1489 2.150 1.841  2.459 1.000 1.00000 2.150 1.000      2.048  23.000
 1490 2.140 1.832  2.448 1.000 1.00000 2.150 1.000      2.274  23.000
 1491 2.150 1.841  2.459 1.000 1.00000 2.150 1.000      3.316  23.000
 1492 2.150 1.841  2.459 1.000 1.00000 2.150 1.000      3.389  23.000
 1493 2.140 1.832  2.448 1.000 1.00000 2.130 1.000      2.657  23.000
 1494 2.170 1.859  2.481 1.000 1.00000 2.170 1.000      1.933  23.000
 1495 2.150 1.841  2.459 1.000 1.00000 2.150 1.000      2.251  23.000
 1496 2.120 1.814  2.426 1.000 1.00000 2.120 1.000      6.606  23.000
 1497 2.150 1.841  2.459 1.000 1.00000 2.150 1.000      2.844  23.000
 1498 2.210 1.895  2.525 1.000 1.00000 2.210 1.000      9.251  23.000
 1499 2.140 1.832  2.448 1.000 1.00000 2.130 1.000      2.798  23.000
 1500 2.150 1.841  2.459 1.000 1.00000 2.150 1.000      4.362  23.000
 1501 2.150 1.841  2.459 1.000 1.00000 2.150 1.000      2.191  23.000
 1502 2.130 1.823  2.437 1.000 1.00000 2.130 1.000      3.449  23.000
 1503 2.150 1.841  2.459 1.000 1.00000 2.150 1.000      3.623  23.000
 1504 2.170 1.859  2.481 1.000 1.00000 2.160 1.000      1.847  23.000
 1505 2.160 1.850  2.470 1.000 1.00000 2.160 1.000      2.606  23.000
 1506 2.130 1.823  2.437 1.000 1.00000 2.130 1.000      5.602  23.000
 1507 2.150 1.841  2.459 1.000 1.00000 2.150 1.000      2.903  23.000
 1508 2.160 1.850  2.470 1.000 1.00000 2.160 1.000      2.448  23.000
 1509 2.160 1.850  2.470 1.000 1.00000 2.160 1.000      4.234  23.000
 1510 2.150 1.841  2.459 1.000 1.00000 2.150 1.000      2.062  23.000
 1511 2.130 1.823  2.437 1.000 1.00000 2.130 1.000      4.586  23.000
 1512 2.160 1.850  2.470 1.000 1.00000 2.160 1.000      3.241  23.000
 1513 2.150 1.841  2.459 1.000 1.00000 2.150 1.000      2.185  23.000
 1514 2.140 1.832  2.448 1.000 1.00000 2.150 1.000      2.047  23.000
 1515 2.150 1.841  2.459 1.000 1.00000 2.150 1.000      2.132  23.000
 1516 2.120 1.814  2.426 1.000 1.00000 2.120 1.000      7.836  23.000
 1517 2.110 1.805  2.415 1.000 1.00000 2.100 1.000     10.774  23.000
 1518 2.160 1.850  2.470 1.000 1.00000 2.160 1.000      5.078  23.000
 1519 2.130 1.823  2.437 1.000 1.00000 2.130 1.000      3.086  23.000
 1520 2.160 1.850  2.470 1.000 1.00000 2.160 1.000      2.125  23.000
 1521 2.200 1.886  2.514 1.000 1.00000 2.200 1.000      4.955  23.000
 1522 2.120 1.814  2.426 1.000 1.00000 2.120 1.000      6.694  23.000
 1523 2.210 1.895  2.525 1.000 1.00000 2.210 1.000      9.136  23.000
 1524 2.200 1.886  2.514 1.000 1.00000 2.200 1.000      4.910  23.000
 1525 2.200 1.886  2.514 1.000 1.00000 2.210 1.000      6.412  23.000
 1526 2.160 1.850  2.470 1.000 1.00000 2.160 1.000      4.855  23.000
 1527 2.130 1.823  2.437 1.000 1.00000 2.130 1.000      3.545  23.000
 1528 2.160 1.850  2.470 1.000 1.00000 2.160 1.000      4.308  23.000
 1529 2.130 1.823  2.437 1.000 1.00000 2.130 1.000      2.915  23.000
 1530 2.140 1.832  2.448 1.000 1.00000 2.140 1.000      2.545  23.000
 1531 2.150 1.841  2.459 1.000 1.00000 2.150 1.000      2.079  23.000
 1532 2.150 1.841  2.459 1.000 1.00000 2.150 1.000      2.802  23.000
 1533 2.150 1.841  2.459 1.000 1.00000 2.150 1.000      2.110  23.000
 1534 2.160 1.850  2.470 1.000 1.00000 2.160 1.000      4.667  23.000
 1535 2.170 1.859  2.481 1.000 1.00000 2.160 1.000      1.975  23.000
 1536 2.200 1.886  2.514 1.000 1.00000 2.200 1.000      5.697  23.000
 1537 2.140 1.832  2.448 1.000 1.00000 2.130 1.000      2.864  23.000
 1538 2.160 1.850  2.470 1.000 1.00000 2.160 1.000      4.161  23.000
 1539 2.130 1.823  2.437 1.000 1.00000 2.130 1.000      5.198  23.000
 1540 2.180 1.868  2.492 1.000 1.00000 2.170 1.000      2.264  23.000
 1541 2.150 1.841  2.459 1.000 1.00000 2.150 1.000      2.069  23.000
 1542 2.130 1.823  2.437 1.000 1.00000 2.130 1.000      5.356  23.000
 1543 2.150 1.841  2.459 1.000 1.00000 2.150 1.000      3.705  23.000
 1544 2.120 1.814  2.426 1.000 1.00000 2.120 1.000      8.111  23.000
 1545 2.170 1.859  2.481 1.000 1.00000 2.160 1.000      1.964  23.000
 1546 2.170 1.859  2.481 1.000 1.00000 2.170 1.000      2.121  23.000
 1547 2.160 1.850  2.470 1.000 1.00000 2.160 1.000      2.486  23.000
 1548 2.150 1.841  2.459 1.000 1.00000 2.150 1.000      4.935  23.000
 1549 2.120 1.814  2.426 1.000 1.00000 2.130 1.000      5.886  23.000
 1550 2.140 1.832  2.448 1.000 1.00000 2.150 1.000      2.321  23.000
 1551 2.150 1.841  2.459 1.000 1.00000 2.150 1.000      2.251  23.000
 1552 2.160 1.850  2.470 1.000 1.00000 2.160 1.000      3.770  23.000
 1553 2.150 1.841  2.459 1.000 1.00000 2.150 1.000      2.210  23.000
 1554 2.140 1.832  2.448 1.000 1.00000 2.150 1.000      2.297  23.000
 1555 2.170 1.859  2.481 1.000 1.00000 2.160 1.000      1.928  23.000
 1556 2.130 1.823  2.437 1.000 1.00000 2.130 1.000      3.733  23.000
 1557 2.140 1.832  2.448 1.000 1.00000 2.140 1.000      2.443  23.000
 1558 2.150 1.841  2.459 1.000 1.00000 2.150 1.000      3.371  23.000
 1559 2.150 1.841  2.459 1.000 1.00000 2.150 1.000      2.289  23.000
 1560 2.120 1.814  2.426 1.000 1.00000 2.120 1.000      7.406  23.000
 1561 2.140 1.832  2.448 1.000 1.00000 2.150 1.000      2.119  23.000
 1562 2.120 1.814  2.426 1.000 1.00000 2.120 1.000      7.470  23.000
 1563 2.130 1.823  2.437 1.000 1.00000 2.130 1.000      5.410  23.000
 1564 2.210 1.895  2.525 1.000 1.00000 2.210 1.000      7.464  23.000
 1565 2.120 1.814  2.426 1.000 1.00000 2.120 1.000      8.007  23.000
 1566 2.160 1.850  2.470 1.000 1.00000 2.160 1.000      4.938  23.000
 1567 2.140 1.832  2.448 1.000 1.00000 2.150 1.000      2.047  23.000
 1568 2.100 1.796  2.404 1.000 1.00000 2.100 1.000     14.008  23.000
 1569 2.150 1.841  2.459 1.000 1.00000 2.150 1.000      2.844  23.000
 1570 2.140 1.832  2.448 1.000 1.00000 2.150 1.000      2.147  23.000
 1571 2.150 1.841  2.459 1.000 1.00000 2.150 1.000      2.082  23.000
 1572 2.120 1.814  2.426 1.000 1.00000 2.120 1.000      6.904  23.000
 1573 2.110 1.805  2.415 1.000 1.00000 2.100 1.000     10.520  23.000
 1574 2.170 1.859  2.481 1.000 1.00000 2.160 1.000      1.878  23.000
 1575 2.140 1.832  2.448 1.000 1.00000 2.140 1.000      2.537  23.000
 1576 2.150 1.841  2.459 1.000 1.00000 2.150 1.000      2.050  23.000
 1577 2.150 1.841  2.459 1.000 1.00000 2.150 1.000      4.589  23.000
 1578 2.150 1.841  2.459 1.000 1.00000 2.150 1.000      5.103  23.000
 1579 2.150 1.841  2.459 1.000 1.00000 2.150 1.000      2.669  23.000
 1580 2.160 1.850  2.470 1.000 1.00000 2.160 1.000      2.054  23.000
 1581 2.140 1.832  2.448 1.000 1.00000 2.130 1.000      2.613  23.000
 1582 2.120 1.814  2.426 1.000 1.00000 2.120 1.000      7.341  23.000
 1583 2.160 1.850  2.470 1.000 1.00000 2.160 1.000      3.973  23.000
 1584 2.220 1.904  2.536 1.000 1.00000 2.210 1.000     11.252  23.000
 1585 2.140 1.832  2.448 1.000 1.00000 2.150 1.000      2.061  23.000
 1586 2.160 1.850  2.470 1.000 1.00000 2.160 1.000      3.950  23.000
 1587 2.130 1.823  2.437 1.000 1.00000 2.130 1.000      3.823  23.000
 1588 2.100 1.796  2.404 1.000 1.00000 2.100 1.000     13.153  23.000
 1589 2.160 1.850  2.470 1.000 1.00000 2.150 1.000      5.131  23.000
 1590 2.200 1.886  2.514 1.000 1.00000 2.200 1.000      5.943  23.000
 1591 2.140 1.832  2.448 1.000 1.00000 2.130 1.000      2.644  23.000
 1592 2.160 1.850  2.470 1.000 1.00000 2.160 1.000      4.458  23.000
 1593 2.140 1.832  2.448 1.000 1.00000 2.150 1.000      2.093  23.000
 1594 2.150 1.841  2.459 1.000 1.00000 2.150 1.000      2.595  23.000
 1595 2.160 1.850  2.470 1.000 1.00000 2.160 1.000      2.648  23.000
 1596 2.150 1.841  2.459 1.000 1.00000 2.150 1.000      2.548  23.000
 1597 2.140 1.832  2.448 1.000 1.00000 2.150 1.000      2.052  23.000
 1598 2.120 1.814  2.426 1.000 1.00000 2.120 1.000      8.502  23.000
 1599 2.170 1.859  2.481 1.000 1.00000 2.170 1.000      2.096  23.000
 1600 2.150 1.841  2.459 1.000 1.00000 2.150 1.000      4.563  23.000
 1601 2.150 1.841  2.459 1.000 1.00000 2.150 1.000      3.124  23.000
 1602 2.150 1.841  2.459 1.000 1.00000 2.150 1.000      2.347  23.000
 1603 2.140 1.832  2.448 1.000 1.00000 2.150 1.000      2.198  23.000
 1604 2.150 1.841  2.459 1.000 1.00000 2.150 1.000      2.681  23.000
 1605 2.140 1.832  2.448 1.000 1.00000 2.130 1.000      2.678  23.000
 1606 2.140 1.832  2.448 1.000 1.00000 2.150 1.000      2.217  23.000
 1607 2.200 1.886  2.514 1.000 1.00000 2.200 1.000      5.565  23.000
 1608 2.160 1.850  2.470 1.000 1.00000 2.160 1.000      2.606  23.000
 1609 2.150 1.841  2.459 1.000 1.00000 2.150 1.000      2.085  23.000
 1610 2.170 1.859  2.481 1.000 1.00000 2.170 1.000      1.933  23.000
 1611 2.130 1.823  2.437 1.000 1.00000 2.130 1.000      2.936  23.000
 1612 2.210 1.895  2.525 1.000 1.00000 2.210 1.000      8.227  23.000
 1613 2.120 1.814  2.426 1.000 1.00000 2.130 1.000      5.686  23.000
 1614 2.150 1.841  2.459 1.000 1.00000 2.150 1.000      4.512  23.000
 1615 2.170 1.859  2.481 1.000 1.00000 2.160 1.000      1.953  23.000
 1616 2.150 1.841  2.459 1.000 1.00000 2.150 1.000      4.100  23.000
 1617 2.120 1.814  2.426 1.000 1.00000 2.130 1.000      5.915  23.000
 1618 2.120 1.814  2.426 1.000 1.00000 2.120 1.000      8.077  23.000
 1619 2.160 1.850  2.470 1.000 1.00000 2.160 1.000      2.736  23.000
 1620 2.140 1.832  2.448 1.000 1.00000 2.150 1.000      2.237  23.000
 1621 2.140 1.832  2.448 1.000 1.00000 2.150 1.000      2.111  23.000
 1622 2.130 1.823  2.437 1.000 1.00000 2.130 1.000      4.870  23.000
 1623 2.160 1.850  2.470 1.000 1.00000 2.160 1.000      3.705  23.000
 1624 2.150 1.841  2.459 1.000 1.00000 2.150 1.000      2.873  23.000
 1625 2.200 1.886  2.514 1.000 1.00000 2.200 1.000      4.821  23.000
 1626 2.160 1.850  2.470 1.000 1.00000 2.160 1.000      4.640  23.000
 1627 2.150 1.841  2.459 1.000 1.00000 2.150 1.000      2.173  23.000
 1628 2.160 1.850  2.470 1.000 1.00000 2.160 1.000      3.298  23.000
 1629 2.160 1.850  2.470 1.000 1.00000 2.160 1.000      2.908  23.000
 1630 2.190 1.877  2.503 1.000 1.00000 2.190 1.000      3.243  23.000
 1631 2.150 1.841  2.459 1.000 1.00000 2.150 1.000      5.047  23.000
 1632 2.160 1.850  2.470 1.000 1.00000 2.160 1.000      3.996  23.000
 1633 2.100 1.796  2.404 1.000 1.00000 2.100 1.000     12.053  23.000
 1634 2.130 1.823  2.437 1.000 1.00000 2.130 1.000      3.202  23.000
 1635 2.150 1.841  2.459 1.000 1.00000 2.150 1.000      4.123  23.000
 1636 2.140 1.832  2.448 1.000 1.00000 2.140 1.000      2.513  23.000
 1637 2.150 1.841  2.459 1.000 1.00000 2.150 1.000      2.694  23.000
 1638 2.170 1.859  2.481 1.000 1.00000 2.170 1.000      1.865  23.000
 1639 2.170 1.859  2.481 1.000 1.00000 2.170 1.000      1.842  23.000
 1640 2.150 1.841  2.459 1.000 1.00000 2.150 1.000      3.705  23.000
 1641 2.150 1.841  2.459 1.000 1.00000 2.150 1.000      4.881  23.000
 1642 2.170 1.859  2.481 1.000 1.00000 2.170 1.000      2.080  23.000
 1643 2.140 1.832  2.448 1.000 1.00000 2.130 1.000      2.772  23.000
 1644 2.150 1.841  2.459 1.000 1.00000 2.150 1.000      2.903  23.000
 1645 2.150 1.841  2.459 1.000 1.00000 2.150 1.000      4.338  23.000
 1646 2.140 1.832  2.448 1.000 1.00000 2.150 1.000      2.119  23.000
 1647 2.140 1.832  2.448 1.000 1.00000 2.150 1.000      2.080  23.000
 1648 2.160 1.850  2.470 1.000 1.00000 2.160 1.000      2.941  23.000
 1649 2.130 1.823  2.437 1.000 1.00000 2.130 1.000      3.162  23.000
 1650 2.160 1.850  2.470 1.000 1.00000 2.160 1.000      4.209  23.000
 1651 2.130 1.823  2.437 1.000 1.00000 2.130 1.000      2.969  23.000
 1652 2.200 1.886  2.514 1.000 1.00000 2.200 1.000      5.971  23.000
 1653 2.110 1.805  2.415 1.000 1.00000 2.100 1.000     11.224  23.000
 1654 2.150 1.841  2.459 1.000 1.00000 2.150 1.000      3.583  23.000
 1655 2.140 1.832  2.448 1.000 1.00000 2.130 1.000      2.723  23.000
 1656 2.130 1.823  2.437 1.000 1.00000 2.130 1.000      4.235  23.000
 1657 2.110 1.805  2.415 1.000 1.00000 2.100 1.000     10.848  23.000
 1658 2.260 1.941  2.579 1.000 1.00000 2.260 1.000     13.085  23.000
 1659 2.260 1.941  2.579 1.000 1.00000 2.260 1.000     13.157  23.000
 1660 2.140 1.832  2.448 1.000 1.00000 2.130 1.000      2.723  23.000
 1661 2.160 1.850  2.470 1.000 1.00000 2.160 1.000      2.766  23.000
 1662 2.160 1.850  2.470 1.000 1.00000 2.160 1.000      2.828  23.000
 1663 2.130 1.823  2.437 1.000 1.00000 2.130 1.000      3.002  23.000
 1664 2.160 1.850  2.470 1.000 1.00000 2.160 1.000      2.353  23.000
 1665 2.140 1.832  2.448 1.000 1.00000 2.150 1.000      2.338  23.000
 1666 2.120 1.814  2.426 1.000 1.00000 2.120 1.000      6.577  23.000
 1667 2.140 1.832  2.448 1.000 1.00000 2.150 1.000      2.080  23.000
 1668 2.170 1.859  2.481 1.000 1.00000 2.170 1.000      1.910  23.000
 1669 2.160 1.850  2.470 1.000 1.00000 2.160 1.000      4.966  23.000
 1670 2.150 1.841  2.459 1.000 1.00000 2.150 1.000      2.067  23.000
 1671 2.180 1.868  2.492 1.000 1.00000 2.170 1.000      2.157  23.000
 1672 2.110 1.805  2.415 1.000 1.00000 2.100 1.000     11.035  23.000
 1673 2.120 1.814  2.426 1.000 1.00000 2.120 1.000      8.759  23.000
 1674 2.140 1.832  2.448 1.000 1.00000 2.140 1.000      2.484  23.000
 1675 2.260 1.941  2.579 1.000 1.00000 2.260 1.000     12.275  23.000
 1676 2.150 1.841  2.459 1.000 1.00000 2.150 1.000      2.681  23.000
 1677 2.200 1.886  2.514 1.000 1.00000 2.200 1.000      4.777  23.000
 1678 2.150 1.841  2.459 1.000 1.00000 2.150 1.000      2.048  23.000
 1679 2.170 1.859  2.481 1.000 1.00000 2.170 1.000      1.938  23.000
 1680 2.160 1.850  2.470 1.000 1.00000 2.160 1.000      3.557  23.000
 1681 2.200 1.886  2.514 1.000 1.00000 2.200 1.000      4.486  23.000
 1682 2.140 1.832  2.448 1.000 1.00000 2.140 1.000      2.424  23.000
 1683 2.150 1.841  2.459 1.000 1.00000 2.150 1.000      3.124  23.000
 1684 2.180 1.868  2.492 1.000 1.00000 2.180 1.000      2.593  23.000
 1685 2.130 1.823  2.437 1.000 1.00000 2.130 1.000      4.726  23.000
 1686 2.110 1.805  2.415 1.000 1.00000 2.100 1.000     10.628  23.000
 1687 2.260 1.941  2.579 1.000 1.00000 2.260 1.000     18.217  23.000
 1688 2.130 1.823  2.437 1.000 1.00000 2.130 1.000      5.095  23.000
 1689 2.170 1.859  2.481 1.000 1.00000 2.170 1.000      2.042  23.000
 1690 2.120 1.814  2.426 1.000 1.00000 2.120 1.000      7.088  23.000
 1691 2.170 1.859  2.481 1.000 1.00000 2.160 1.000      1.948  23.000
 1692 2.170 1.859  2.481 1.000 1.00000 2.170 1.000      1.883  23.000
 1693 2.160 1.850  2.470 1.000 1.00000 2.160 1.000      4.883  23.000
 1694 2.170 1.859  2.481 1.000 1.00000 2.160 1.000      1.969  23.000
 1695 2.160 1.850  2.470 1.000 1.00000 2.160 1.000      2.298  23.000
 1696 2.150 1.841  2.459 1.000 1.00000 2.150 1.000      3.663  23.000
 1697 2.120 1.814  2.426 1.000 1.00000 2.130 1.000      6.183  23.000
 1698 2.150 1.841  2.459 1.000 1.00000 2.150 1.000      3.523  23.000
 1699 2.160 1.850  2.470 1.000 1.00000 2.160 1.000      4.019  23.000
 1700 2.190 1.877  2.503 1.000 1.00000 2.190 1.000      3.657  23.000
