## File LOS/SB2_B2004a_2.3z_Mags_600.bpz  Fri Aug 12 23:38:34 2016
##
##Parameters used to run BPZ:
##
##AB_DIR=/home/lidenscheng/bpz-1.99.3//AB/
##ADD_CONTINUOUS_PROB=None
##ADD_SPEC_PROB=None
##CHECK=LOS/SB2_B2004a_2.3z_Mags_600.flux_comparison
##COLOR=no
##COLUMNS=losNoErrors.columns
##CONVOLVE_P=yes
##DELTA_M_0=0.0
##DZ=0.01
##EXCLUDE=none
##FC=None
##FILTER_DIR=/home/lidenscheng/MK_DirectSim/filters/
##GET_Z=yes
##INPUT=LOS/SB2_B2004a_2.3z_Mags_600.txt
##INTERACTIVE=yes
##INTERP=0
##MADAU=no
##MAG=yes
##MEAN_IGM=yes
##MERGE_PEAKS=no
##MIN_MAGERR=0.001
##MIN_RMS=0.05
##NEW_AB=no
##NMAX=None
##NTYPES=None
##N_PEAKS=1
##ODDS=0.95
##ONLY_TYPE=no
##OUTPUT=LOS/SB2_B2004a_2.3z_Mags_600.bpz
##PHOTO_ERRORS=no
##PLOTS=no
##PRIOR=none
##PROBS=no
##PROBS2=no
##PROBS_LITE=LOS/SB2_B2004a_2.3z_Mags_600.probs
##P_MIN=0.01
##SED_DIR=/home/lidenscheng/MK_DirectSim/SEDs/
##SPECTRA=SB2.list
##VERBOSE=yes
##ZC=None
##ZMAX=10.0
##ZMIN=0.01
##ZP_OFFSETS=0.0
##Z_THR=0
##
##Column information
##
# 1 ID
# 2 Z_B
# 3 Z_B_MIN
# 4 Z_B_MAX
# 5 T_B
# 6 ODDS    
# 7 Z_ML
# 8 T_ML
# 9 CHI-SQUARED
# 10 M_0
##
    1 2.290 1.968  2.612 1.000 1.00000 2.290 1.000      1.891  23.000
    2 2.300 1.977  2.623 1.000 1.00000 2.300 1.000      0.900  23.000
    3 2.440 2.103  2.777 1.000 1.00000 2.440 1.000     20.291  23.000
    4 2.360 2.031  2.689 1.000 1.00000 2.350 1.000      8.268  23.000
    5 2.330 2.004  2.656 1.000 1.00000 2.340 1.000      3.846  23.000
    6 2.300 1.977  2.623 1.000 1.00000 2.300 1.000      0.571  23.000
    7 2.330 2.004  2.656 1.000 1.00000 2.340 1.000      3.588  23.000
    8 2.270 1.950  2.590 1.000 1.00000 2.270 1.000      3.431  23.000
    9 2.340 2.013  2.667 1.000 1.00000 2.340 1.000      6.863  23.000
   10 2.250 1.932  2.568 1.000 1.00000 2.250 1.000      4.475  23.000
   11 2.330 2.004  2.656 1.000 1.00000 2.330 1.000      3.520  23.000
   12 2.540 2.193  2.887 1.000 1.00000 2.540 1.000     47.810  23.000
   13 2.370 2.040  2.700 1.000 1.00000 2.370 1.000      9.507  23.000
   14 2.340 2.013  2.667 1.000 1.00000 2.340 1.000      5.186  23.000
   15 2.440 2.103  2.777 1.000 1.00000 2.440 1.000     21.411  23.000
   16 2.370 2.040  2.700 1.000 1.00000 2.370 1.000     10.430  23.000
   17 2.360 2.031  2.689 1.000 1.00000 2.370 1.000     10.589  23.000
   18 2.420 2.085  2.755 1.000 1.00000 2.430 1.000     16.589  23.000
   19 2.360 2.031  2.689 1.000 1.00000 2.350 1.000      8.972  23.000
   20 2.320 1.995  2.645 1.000 1.00000 2.320 1.000      1.514  23.000
   21 2.300 1.977  2.623 1.000 1.00000 2.300 1.000      0.680  23.000
   22 2.300 1.977  2.623 1.000 1.00000 2.300 1.000      0.418  23.000
   23 2.480 2.139  2.821 1.000 1.00000 2.480 1.000     30.766  23.000
   24 2.370 2.040  2.700 1.000 1.00000 2.370 1.000     11.947  23.000
   25 2.390 2.058  2.722 1.000 1.00000 2.390 1.000     15.301  23.000
   26 2.330 2.004  2.656 1.000 1.00000 2.340 1.000      4.088  23.000
   27 2.390 2.058  2.722 1.000 1.00000 2.390 1.000     12.941  23.000
   28 2.310 1.986  2.634 1.000 1.00000 2.310 1.000      0.624  23.000
   29 2.330 2.004  2.656 1.000 1.00000 2.320 1.000      3.398  23.000
   30 2.360 2.031  2.689 1.000 1.00000 2.350 1.000      7.452  23.000
   31 2.250 1.932  2.568 1.000 1.00000 2.250 1.000      5.444  23.000
   32 2.480 2.139  2.821 1.000 1.00000 2.480 1.000     30.794  23.000
   33 2.250 1.932  2.568 1.000 1.00000 2.250 1.000      8.999  23.000
   34 2.360 2.031  2.689 1.000 1.00000 2.350 1.000      6.139  23.000
   35 2.250 1.932  2.568 1.000 1.00000 2.250 1.000      4.012  23.000
   36 2.290 1.968  2.612 1.000 1.00000 2.290 1.000      1.831  23.000
   37 2.280 1.959  2.601 1.000 1.00000 2.290 1.000      2.678  23.000
   38 2.540 2.193  2.887 1.000 1.00000 2.540 1.000     35.590  23.000
   39 2.440 2.103  2.777 1.000 1.00000 2.440 1.000     19.051  23.000
   40 2.360 2.031  2.689 1.000 1.00000 2.370 1.000      9.883  23.000
   41 2.270 1.950  2.590 1.000 1.00000 2.270 1.000      3.412  23.000
   42 2.310 1.986  2.634 1.000 1.00000 2.310 1.000      1.271  23.000
   43 2.370 2.040  2.700 1.000 1.00000 2.370 1.000      9.958  23.000
   44 2.310 1.986  2.634 1.000 1.00000 2.310 1.000      0.519  23.000
   45 2.310 1.986  2.634 1.000 1.00000 2.310 1.000      0.552  23.000
   46 2.340 2.013  2.667 1.000 1.00000 2.340 1.000      4.659  23.000
   47 2.460 2.121  2.799 1.000 1.00000 2.470 1.000     20.322  23.000
   48 2.330 2.004  2.656 1.000 1.00000 2.340 1.000      3.784  23.000
   49 2.380 2.049  2.711 1.000 1.00000 2.380 1.000     12.647  23.000
   50 2.320 1.995  2.645 1.000 1.00000 2.320 1.000      1.603  23.000
   51 2.370 2.040  2.700 1.000 1.00000 2.370 1.000      9.854  23.000
   52 2.350 2.022  2.678 1.000 1.00000 2.350 1.000      7.288  23.000
   53 2.440 2.103  2.777 1.000 1.00000 2.440 1.000     20.618  23.000
   54 2.320 1.995  2.645 1.000 1.00000 2.320 1.000      1.925  23.000
   55 2.330 2.004  2.656 1.000 1.00000 2.330 1.000      3.080  23.000
   56 2.300 1.977  2.623 1.000 1.00000 2.300 1.000      0.659  23.000
   57 2.280 1.959  2.601 1.000 1.00000 2.290 1.000      2.294  23.000
   58 2.540 2.193  2.887 1.000 1.00000 2.540 1.000     43.465  23.000
   59 2.440 2.103  2.777 1.000 1.00000 2.440 1.000     20.208  23.000
   60 2.340 2.013  2.667 1.000 1.00000 2.340 1.000      3.992  23.000
   61 2.320 1.995  2.645 1.000 1.00000 2.310 1.000      1.030  23.000
   62 2.430 2.094  2.766 1.000 1.00000 2.430 1.000     14.076  23.000
   63 2.430 2.094  2.766 1.000 1.00000 2.440 1.000     17.136  23.000
   64 2.260 1.941  2.579 1.000 1.00000 2.250 1.000      4.467  23.000
   65 2.440 2.103  2.777 1.000 1.00000 2.440 1.000     22.187  23.000
   66 2.360 2.031  2.689 1.000 1.00000 2.350 1.000      6.797  23.000
   67 2.420 2.085  2.755 1.000 1.00000 2.430 1.000     14.726  23.000
   68 2.330 2.004  2.656 1.000 1.00000 2.330 1.000      2.200  23.000
   69 2.300 1.977  2.623 1.000 1.00000 2.300 1.000      0.402  23.000
   70 2.290 1.968  2.612 1.000 1.00000 2.300 1.000      1.006  23.000
   71 2.280 1.959  2.601 1.000 1.00000 2.290 1.000      3.511  23.000
   72 2.280 1.959  2.601 1.000 1.00000 2.270 1.000      3.127  23.000
   73 2.340 2.013  2.667 1.000 1.00000 2.340 1.000      5.458  23.000
   74 2.250 1.932  2.568 1.000 1.00000 2.250 1.000      5.668  23.000
   75 2.340 2.013  2.667 1.000 1.00000 2.340 1.000      4.645  23.000
   76 2.320 1.995  2.645 1.000 1.00000 2.320 1.000      1.806  23.000
   77 2.290 1.968  2.612 1.000 1.00000 2.290 1.000      1.312  23.000
   78 2.370 2.040  2.700 1.000 1.00000 2.370 1.000      8.720  23.000
   79 2.440 2.103  2.777 1.000 1.00000 2.440 1.000     23.962  23.000
   80 2.250 1.932  2.568 1.000 1.00000 2.250 1.000      4.127  23.000
   81 2.380 2.049  2.711 1.000 1.00000 2.380 1.000     13.661  23.000
   82 2.310 1.986  2.634 1.000 1.00000 2.310 1.000      0.723  23.000
   83 2.480 2.139  2.821 1.000 1.00000 2.480 1.000     31.484  23.000
   84 2.480 2.139  2.821 1.000 1.00000 2.480 1.000     27.116  23.000
   85 2.330 2.004  2.656 1.000 1.00000 2.340 1.000      4.947  23.000
   86 2.250 1.932  2.568 1.000 1.00000 2.250 1.000      4.059  23.000
   87 2.370 2.040  2.700 1.000 1.00000 2.370 1.000      9.782  23.000
   88 2.280 1.959  2.601 1.000 1.00000 2.270 1.000      2.959  23.000
   89 2.340 2.013  2.667 1.000 1.00000 2.340 1.000      7.029  23.000
   90 2.330 2.004  2.656 1.000 1.00000 2.330 1.000      2.862  23.000
   91 2.310 1.986  2.634 1.000 1.00000 2.310 1.000      0.902  23.000
   92 2.340 2.013  2.667 1.000 1.00000 2.340 1.000      4.547  23.000
   93 2.330 2.004  2.656 1.000 1.00000 2.320 1.000      2.676  23.000
   94 2.340 2.013  2.667 1.000 1.00000 2.340 1.000      5.854  23.000
   95 2.420 2.085  2.755 1.000 1.00000 2.430 1.000     16.220  23.000
   96 2.380 2.049  2.711 1.000 1.00000 2.380 1.000     13.209  23.000
   97 2.270 1.950  2.590 1.000 1.00000 2.270 1.000      3.654  23.000
   98 2.280 1.959  2.601 1.000 1.00000 2.270 1.000      2.902  23.000
   99 2.310 1.986  2.634 1.000 1.00000 2.310 1.000      0.491  23.000
  100 2.310 1.986  2.634 1.000 1.00000 2.310 1.000      0.496  23.000
  101 2.320 1.995  2.645 1.000 1.00000 2.320 1.000      1.852  23.000
  102 2.330 2.004  2.656 1.000 1.00000 2.340 1.000      4.191  23.000
  103 2.330 2.004  2.656 1.000 1.00000 2.340 1.000      4.806  23.000
  104 2.310 1.986  2.634 1.000 1.00000 2.310 1.000      0.408  23.000
  105 2.250 1.932  2.568 1.000 1.00000 2.250 1.000      3.997  23.000
  106 2.330 2.004  2.656 1.000 1.00000 2.330 1.000      1.921  23.000
  107 2.320 1.995  2.645 1.000 1.00000 2.320 1.000      1.191  23.000
  108 2.520 2.175  2.865 1.000 1.00000 2.530 1.000     29.668  23.000
  109 2.340 2.013  2.667 1.000 1.00000 2.340 1.000      4.115  23.000
  110 2.360 2.031  2.689 1.000 1.00000 2.350 1.000      7.453  23.000
  111 2.360 2.031  2.689 1.000 1.00000 2.370 1.000      9.480  23.000
  112 2.440 2.103  2.777 1.000 1.00000 2.440 1.000     20.990  23.000
  113 2.300 1.977  2.623 1.000 1.00000 2.300 1.000      0.820  23.000
  114 2.340 2.013  2.667 1.000 1.00000 2.340 1.000      4.964  23.000
  115 2.320 1.995  2.645 1.000 1.00000 2.320 1.000      1.023  23.000
  116 2.330 2.004  2.656 1.000 1.00000 2.340 1.000      3.787  23.000
  117 2.310 1.986  2.634 1.000 1.00000 2.310 1.000      0.460  23.000
  118 2.300 1.977  2.623 1.000 1.00000 2.300 1.000      0.387  23.000
  119 2.340 2.013  2.667 1.000 1.00000 2.340 1.000      5.315  23.000
  120 2.300 1.977  2.623 1.000 1.00000 2.300 1.000      1.174  23.000
  121 2.350 2.022  2.678 1.000 1.00000 2.350 1.000      7.783  23.000
  122 2.350 2.022  2.678 1.000 1.00000 2.350 1.000      6.747  23.000
  123 2.300 1.977  2.623 1.000 1.00000 2.300 1.000      1.116  23.000
  124 2.440 2.103  2.777 1.000 1.00000 2.440 1.000     21.294  23.000
  125 2.310 1.986  2.634 1.000 1.00000 2.310 1.000      1.070  23.000
  126 2.320 1.995  2.645 1.000 1.00000 2.320 1.000      2.124  23.000
  127 2.310 1.986  2.634 1.000 1.00000 2.310 1.000      0.452  23.000
  128 2.320 1.995  2.645 1.000 1.00000 2.320 1.000      2.073  23.000
  129 2.470 2.130  2.810 1.000 1.00000 2.440 1.000     26.491  23.000
  130 2.440 2.103  2.777 1.000 1.00000 2.440 1.000     19.556  23.000
  131 2.250 1.932  2.568 1.000 1.00000 2.250 1.000      4.649  23.000
  132 2.310 1.986  2.634 1.000 1.00000 2.310 1.000      0.972  23.000
  133 2.380 2.049  2.711 1.000 1.00000 2.380 1.000     12.922  23.000
  134 2.360 2.031  2.689 1.000 1.00000 2.370 1.000      8.946  23.000
  135 2.430 2.094  2.766 1.000 1.00000 2.430 1.000     17.533  23.000
  136 2.340 2.013  2.667 1.000 1.00000 2.340 1.000      3.312  23.000
  137 2.330 2.004  2.656 1.000 1.00000 2.340 1.000      4.586  23.000
  138 2.330 2.004  2.656 1.000 1.00000 2.330 1.000      3.247  23.000
  139 2.360 2.031  2.689 1.000 1.00000 2.350 1.000      7.336  23.000
  140 2.290 1.968  2.612 1.000 1.00000 2.290 1.000      1.650  23.000
  141 2.440 2.103  2.777 1.000 1.00000 2.440 1.000     17.972  23.000
  142 2.290 1.968  2.612 1.000 1.00000 2.290 1.000      2.143  23.000
  143 2.300 1.977  2.623 1.000 1.00000 2.300 1.000      0.952  23.000
  144 2.320 1.995  2.645 1.000 1.00000 2.320 1.000      1.397  23.000
  145 2.250 1.932  2.568 1.000 1.00000 2.250 1.000      6.857  23.000
  146 2.330 2.004  2.656 1.000 1.00000 2.330 1.000      3.437  23.000
  147 2.260 1.941  2.579 1.000 1.00000 2.250 1.000      4.367  23.000
  148 2.280 1.959  2.601 1.000 1.00000 2.290 1.000      2.322  23.000
  149 2.270 1.950  2.590 1.000 1.00000 2.270 1.000      4.063  23.000
  150 2.330 2.004  2.656 1.000 1.00000 2.330 1.000      3.635  23.000
  151 2.480 2.139  2.821 1.000 1.00000 2.480 1.000     26.507  23.000
  152 2.380 2.049  2.711 1.000 1.00000 2.370 1.000     11.845  23.000
  153 2.250 1.932  2.568 1.000 1.00000 2.250 1.000      4.084  23.000
  154 2.350 2.022  2.678 1.000 1.00000 2.350 1.000      5.117  23.000
  155 2.480 2.139  2.821 1.000 1.00000 2.480 1.000     29.211  23.000
  156 2.320 1.995  2.645 1.000 1.00000 2.320 1.000      2.267  23.000
  157 2.340 2.013  2.667 1.000 1.00000 2.340 1.000      5.012  23.000
  158 2.290 1.968  2.612 1.000 1.00000 2.290 1.000      1.951  23.000
  159 2.380 2.049  2.711 1.000 1.00000 2.380 1.000     12.716  23.000
  160 2.360 2.031  2.689 1.000 1.00000 2.350 1.000      9.244  23.000
  161 2.300 1.977  2.623 1.000 1.00000 2.300 1.000      0.409  23.000
  162 2.390 2.058  2.722 1.000 1.00000 2.380 1.000     13.744  23.000
  163 2.480 2.139  2.821 1.000 1.00000 2.480 1.000     24.542  23.000
  164 2.370 2.040  2.700 1.000 1.00000 2.370 1.000      9.932  23.000
  165 2.350 2.022  2.678 1.000 1.00000 2.350 1.000      6.208  23.000
  166 2.330 2.004  2.656 1.000 1.00000 2.340 1.000      4.124  23.000
  167 2.280 1.959  2.601 1.000 1.00000 2.270 1.000      2.966  23.000
  168 2.330 2.004  2.656 1.000 1.00000 2.330 1.000      3.619  23.000
  169 2.360 2.031  2.689 1.000 1.00000 2.350 1.000      7.444  23.000
  170 2.370 2.040  2.700 1.000 1.00000 2.370 1.000     12.252  23.000
  171 2.310 1.986  2.634 1.000 1.00000 2.310 1.000      0.413  23.000
  172 2.350 2.022  2.678 1.000 1.00000 2.350 1.000      7.648  23.000
  173 2.360 2.031  2.689 1.000 1.00000 2.350 1.000      6.902  23.000
  174 2.440 2.103  2.777 1.000 1.00000 2.440 1.000     19.028  23.000
  175 2.350 2.022  2.678 1.000 1.00000 2.350 1.000      7.257  23.000
  176 2.330 2.004  2.656 1.000 1.00000 2.320 1.000      2.602  23.000
  177 2.250 1.932  2.568 1.000 1.00000 2.250 1.000      4.213  23.000
  178 2.310 1.986  2.634 1.000 1.00000 2.310 1.000      0.543  23.000
  179 2.300 1.977  2.623 1.000 1.00000 2.300 1.000      0.386  23.000
  180 2.340 2.013  2.667 1.000 1.00000 2.340 1.000      5.848  23.000
  181 2.330 2.004  2.656 1.000 1.00000 2.330 1.000      2.870  23.000
  182 2.280 1.959  2.601 1.000 1.00000 2.270 1.000      3.614  23.000
  183 2.320 1.995  2.645 1.000 1.00000 2.310 1.000      1.262  23.000
  184 2.340 2.013  2.667 1.000 1.00000 2.340 1.000      3.796  23.000
  185 2.360 2.031  2.689 1.000 1.00000 2.350 1.000      8.199  23.000
  186 2.290 1.968  2.612 1.000 1.00000 2.290 1.000      2.296  23.000
  187 2.310 1.986  2.634 1.000 1.00000 2.310 1.000      0.424  23.000
  188 2.330 2.004  2.656 1.000 1.00000 2.340 1.000      3.662  23.000
  189 2.340 2.013  2.667 1.000 1.00000 2.340 1.000      4.747  23.000
  190 2.280 1.959  2.601 1.000 1.00000 2.290 1.000      2.437  23.000
  191 2.300 1.977  2.623 1.000 1.00000 2.300 1.000      1.101  23.000
  192 2.350 2.022  2.678 1.000 1.00000 2.350 1.000      6.265  23.000
  193 2.330 2.004  2.656 1.000 1.00000 2.330 1.000      4.033  23.000
  194 2.320 1.995  2.645 1.000 1.00000 2.320 1.000      1.754  23.000
  195 2.440 2.103  2.777 1.000 1.00000 2.440 1.000     19.745  23.000
  196 2.470 2.130  2.810 1.000 1.00000 2.470 1.000     24.003  23.000
  197 2.360 2.031  2.689 1.000 1.00000 2.350 1.000      8.063  23.000
  198 2.370 2.040  2.700 1.000 1.00000 2.370 1.000     11.725  23.000
  199 2.290 1.968  2.612 1.000 1.00000 2.290 1.000      1.874  23.000
  200 2.250 1.932  2.568 1.000 1.00000 2.250 1.000      4.730  23.000
  201 2.480 2.139  2.821 1.000 1.00000 2.480 1.000     23.900  23.000
  202 2.480 2.139  2.821 1.000 1.00000 2.480 1.000     31.466  23.000
  203 2.310 1.986  2.634 1.000 1.00000 2.310 1.000      0.495  23.000
  204 2.370 2.040  2.700 1.000 1.00000 2.370 1.000      8.785  23.000
  205 2.470 2.130  2.810 1.000 1.00000 2.480 1.000     24.629  23.000
  206 2.300 1.977  2.623 1.000 1.00000 2.300 1.000      0.437  23.000
  207 2.340 2.013  2.667 1.000 1.00000 2.340 1.000      4.667  23.000
  208 2.300 1.977  2.623 1.000 1.00000 2.300 1.000      0.412  23.000
  209 2.340 2.013  2.667 1.000 1.00000 2.340 1.000      6.101  23.000
  210 2.440 2.103  2.777 1.000 1.00000 2.440 1.000     20.467  23.000
  211 2.350 2.022  2.678 1.000 1.00000 2.350 1.000      7.667  23.000
  212 2.330 2.004  2.656 1.000 1.00000 2.320 1.000      2.278  23.000
  213 2.480 2.139  2.821 1.000 1.00000 2.480 1.000     27.461  23.000
  214 2.300 1.977  2.623 1.000 1.00000 2.300 1.000      0.480  23.000
  215 2.370 2.040  2.700 1.000 1.00000 2.370 1.000      9.192  23.000
  216 2.480 2.139  2.821 1.000 1.00000 2.480 1.000     28.405  23.000
  217 2.370 2.040  2.700 1.000 1.00000 2.370 1.000     10.366  23.000
  218 2.440 2.103  2.777 1.000 1.00000 2.440 1.000     19.329  23.000
  219 2.370 2.040  2.700 1.000 1.00000 2.370 1.000      9.778  23.000
  220 2.440 2.103  2.777 1.000 1.00000 2.440 1.000     21.484  23.000
  221 2.250 1.932  2.568 1.000 1.00000 2.250 1.000      4.591  23.000
  222 2.440 2.103  2.777 1.000 1.00000 2.440 1.000     16.957  23.000
  223 2.320 1.995  2.645 1.000 1.00000 2.310 1.000      1.714  23.000
  224 2.440 2.103  2.777 1.000 1.00000 2.440 1.000     20.178  23.000
  225 2.280 1.959  2.601 1.000 1.00000 2.270 1.000      3.210  23.000
  226 2.280 1.959  2.601 1.000 1.00000 2.290 1.000      2.470  23.000
  227 2.310 1.986  2.634 1.000 1.00000 2.310 1.000      0.597  23.000
  228 2.300 1.977  2.623 1.000 1.00000 2.300 1.000      0.640  23.000
  229 2.540 2.193  2.887 1.000 1.00000 2.540 1.000     35.011  23.000
  230 2.290 1.968  2.612 1.000 1.00000 2.290 1.000      1.233  23.000
  231 2.310 1.986  2.634 1.000 1.00000 2.310 1.000      0.462  23.000
  232 2.350 2.022  2.678 1.000 1.00000 2.350 1.000      7.369  23.000
  233 2.320 1.995  2.645 1.000 1.00000 2.310 1.000      1.480  23.000
  234 2.380 2.049  2.711 1.000 1.00000 2.370 1.000     11.680  23.000
  235 2.280 1.959  2.601 1.000 1.00000 2.270 1.000      3.225  23.000
  236 2.370 2.040  2.700 1.000 1.00000 2.370 1.000      9.862  23.000
  237 2.440 2.103  2.777 1.000 1.00000 2.440 1.000     19.850  23.000
  238 2.370 2.040  2.700 1.000 1.00000 2.370 1.000     10.117  23.000
  239 2.250 1.932  2.568 1.000 1.00000 2.250 1.000      4.198  23.000
  240 2.330 2.004  2.656 1.000 1.00000 2.330 1.000      3.216  23.000
  241 2.310 1.986  2.634 1.000 1.00000 2.310 1.000      1.317  23.000
  242 2.300 1.977  2.623 1.000 1.00000 2.300 1.000      0.579  23.000
  243 2.490 2.148  2.832 1.000 1.00000 2.480 1.000     32.180  23.000
  244 2.310 1.986  2.634 1.000 1.00000 2.310 1.000      1.514  23.000
  245 2.340 2.013  2.667 1.000 1.00000 2.340 1.000      4.957  23.000
  246 2.340 2.013  2.667 1.000 1.00000 2.340 1.000      6.032  23.000
  247 2.320 1.995  2.645 1.000 1.00000 2.320 1.000      1.952  23.000
  248 2.250 1.932  2.568 1.000 1.00000 2.250 1.000      5.008  23.000
  249 2.360 2.031  2.689 1.000 1.00000 2.370 1.000      9.606  23.000
  250 2.310 1.986  2.634 1.000 1.00000 2.310 1.000      0.439  23.000
  251 2.330 2.004  2.656 1.000 1.00000 2.340 1.000      3.057  23.000
  252 2.300 1.977  2.623 1.000 1.00000 2.300 1.000      0.688  23.000
  253 2.330 2.004  2.656 1.000 1.00000 2.330 1.000      2.459  23.000
  254 2.290 1.968  2.612 1.000 1.00000 2.300 1.000      2.350  23.000
  255 2.380 2.049  2.711 1.000 1.00000 2.380 1.000     12.614  23.000
  256 2.320 1.995  2.645 1.000 1.00000 2.320 1.000      1.607  23.000
  257 2.330 2.004  2.656 1.000 1.00000 2.340 1.000      3.858  23.000
  258 2.350 2.022  2.678 1.000 1.00000 2.350 1.000      6.760  23.000
  259 2.540 2.193  2.887 1.000 1.00000 2.540 1.000     38.674  23.000
  260 2.250 1.932  2.568 1.000 1.00000 2.250 1.000      4.717  23.000
  261 2.380 2.049  2.711 1.000 1.00000 2.380 1.000     13.772  23.000
  262 2.310 1.986  2.634 1.000 1.00000 2.310 1.000      0.707  23.000
  263 2.270 1.950  2.590 1.000 1.00000 2.270 1.000      4.145  23.000
  264 2.290 1.968  2.612 1.000 1.00000 2.290 1.000      1.673  23.000
  265 2.360 2.031  2.689 1.000 1.00000 2.350 1.000      9.421  23.000
  266 2.440 2.103  2.777 1.000 1.00000 2.440 1.000     17.798  23.000
  267 2.300 1.977  2.623 1.000 1.00000 2.300 1.000      1.066  23.000
  268 2.250 1.932  2.568 1.000 1.00000 2.250 1.000      3.915  23.000
  269 2.440 2.103  2.777 1.000 1.00000 2.440 1.000     22.527  23.000
  270 2.320 1.995  2.645 1.000 1.00000 2.320 1.000      1.324  23.000
  271 2.370 2.040  2.700 1.000 1.00000 2.370 1.000     10.405  23.000
  272 2.540 2.193  2.887 1.000 1.00000 2.540 1.000     37.883  23.000
  273 2.360 2.031  2.689 1.000 1.00000 2.350 1.000      7.591  23.000
  274 2.300 1.977  2.623 1.000 1.00000 2.310 1.000      0.514  23.000
  275 2.430 2.094  2.766 1.000 1.00000 2.440 1.000     17.274  23.000
  276 2.280 1.959  2.601 1.000 1.00000 2.290 1.000      2.007  23.000
  277 2.370 2.040  2.700 1.000 1.00000 2.370 1.000     10.750  23.000
  278 2.250 1.932  2.568 1.000 1.00000 2.250 1.000      4.050  23.000
  279 2.270 1.950  2.590 1.000 1.00000 2.270 1.000      3.092  23.000
  280 2.310 1.986  2.634 1.000 1.00000 2.310 1.000      0.731  23.000
  281 2.360 2.031  2.689 1.000 1.00000 2.350 1.000      7.101  23.000
  282 2.280 1.959  2.601 1.000 1.00000 2.290 1.000      2.346  23.000
  283 2.380 2.049  2.711 1.000 1.00000 2.370 1.000     12.450  23.000
  284 2.280 1.959  2.601 1.000 1.00000 2.290 1.000      2.025  23.000
  285 2.350 2.022  2.678 1.000 1.00000 2.350 1.000      8.152  23.000
  286 2.310 1.986  2.634 1.000 1.00000 2.310 1.000      0.574  23.000
  287 2.300 1.977  2.623 1.000 1.00000 2.300 1.000      0.409  23.000
  288 2.320 1.995  2.645 1.000 1.00000 2.320 1.000      2.264  23.000
  289 2.300 1.977  2.623 1.000 1.00000 2.310 1.000      0.421  23.000
  290 2.340 2.013  2.667 1.000 1.00000 2.340 1.000      6.598  23.000
  291 2.370 2.040  2.700 1.000 1.00000 2.370 1.000     11.180  23.000
  292 2.320 1.995  2.645 1.000 1.00000 2.310 1.000      1.142  23.000
  293 2.290 1.968  2.612 1.000 1.00000 2.300 1.000      0.920  23.000
  294 2.360 2.031  2.689 1.000 1.00000 2.370 1.000      9.602  23.000
  295 2.330 2.004  2.656 1.000 1.00000 2.340 1.000      3.833  23.000
  296 2.250 1.932  2.568 1.000 1.00000 2.250 1.000      4.222  23.000
  297 2.300 1.977  2.623 1.000 1.00000 2.300 1.000      0.716  23.000
  298 2.310 1.986  2.634 1.000 1.00000 2.310 1.000      0.590  23.000
  299 2.400 2.067  2.733 1.000 1.00000 2.390 1.000     15.878  23.000
  300 2.320 1.995  2.645 1.000 1.00000 2.310 1.000      1.466  23.000
  301 2.250 1.932  2.568 1.000 1.00000 2.250 1.000      5.774  23.000
  302 2.310 1.986  2.634 1.000 1.00000 2.310 1.000      0.395  23.000
  303 2.360 2.031  2.689 1.000 1.00000 2.350 1.000      8.033  23.000
  304 2.250 1.932  2.568 1.000 1.00000 2.250 1.000      4.178  23.000
  305 2.350 2.022  2.678 1.000 1.00000 2.340 1.000      7.225  23.000
  306 2.300 1.977  2.623 1.000 1.00000 2.300 1.000      0.727  23.000
  307 2.290 1.968  2.612 1.000 1.00000 2.300 1.000      0.975  23.000
  308 2.310 1.986  2.634 1.000 1.00000 2.310 1.000      0.485  23.000
  309 2.350 2.022  2.678 1.000 1.00000 2.350 1.000      6.559  23.000
  310 2.350 2.022  2.678 1.000 1.00000 2.350 1.000      6.103  23.000
  311 2.280 1.959  2.601 1.000 1.00000 2.270 1.000      3.533  23.000
  312 2.540 2.193  2.887 1.000 1.00000 2.540 1.000     37.536  23.000
  313 2.310 1.986  2.634 1.000 1.00000 2.310 1.000      1.351  23.000
  314 2.290 1.968  2.612 1.000 1.00000 2.290 1.000      2.631  23.000
  315 2.580 2.229  2.931 1.000 1.00000 2.580 1.000     57.671  23.000
  316 2.330 2.004  2.656 1.000 1.00000 2.340 1.000      3.734  23.000
  317 2.330 2.004  2.656 1.000 1.00000 2.330 1.000      3.408  23.000
  318 2.250 1.932  2.568 1.000 1.00000 2.250 1.000      4.407  23.000
  319 2.300 1.977  2.623 1.000 1.00000 2.300 1.000      0.776  23.000
  320 2.360 2.031  2.689 1.000 1.00000 2.350 1.000      9.069  23.000
  321 2.360 2.031  2.689 1.000 1.00000 2.350 1.000      8.579  23.000
  322 2.530 2.184  2.876 1.000 1.00000 2.540 1.000     34.380  23.000
  323 2.310 1.986  2.634 1.000 1.00000 2.310 1.000      0.377  23.000
  324 2.330 2.004  2.656 1.000 1.00000 2.330 1.000      2.652  23.000
  325 2.330 2.004  2.656 1.000 1.00000 2.320 1.000      2.743  23.000
  326 2.300 1.977  2.623 1.000 1.00000 2.300 1.000      0.397  23.000
  327 2.330 2.004  2.656 1.000 1.00000 2.320 1.000      2.664  23.000
  328 2.360 2.031  2.689 1.000 1.00000 2.350 1.000      7.594  23.000
  329 2.320 1.995  2.645 1.000 1.00000 2.320 1.000      2.316  23.000
  330 2.250 1.932  2.568 1.000 1.00000 2.250 1.000      4.674  23.000
  331 2.250 1.932  2.568 1.000 1.00000 2.250 1.000      4.256  23.000
  332 2.300 1.977  2.623 1.000 1.00000 2.300 1.000      0.530  23.000
  333 2.300 1.977  2.623 1.000 1.00000 2.300 1.000      0.408  23.000
  334 2.290 1.968  2.612 1.000 1.00000 2.300 1.000      1.552  23.000
  335 2.240 1.922  2.558 1.000 1.00000 2.250 1.000     13.645  23.000
  336 2.410 2.076  2.744 1.000 1.00000 2.430 1.000     15.501  23.000
  337 2.310 1.986  2.634 1.000 1.00000 2.310 1.000      0.960  23.000
  338 2.360 2.031  2.689 1.000 1.00000 2.350 1.000      8.482  23.000
  339 2.290 1.968  2.612 1.000 1.00000 2.290 1.000      1.746  23.000
  340 2.370 2.040  2.700 1.000 1.00000 2.370 1.000      7.683  23.000
  341 2.280 1.959  2.601 1.000 1.00000 2.290 1.000      2.505  23.000
  342 2.330 2.004  2.656 1.000 1.00000 2.340 1.000      3.933  23.000
  343 2.480 2.139  2.821 1.000 1.00000 2.480 1.000     27.156  23.000
  344 2.350 2.022  2.678 1.000 1.00000 2.350 1.000      7.097  23.000
  345 2.250 1.932  2.568 1.000 1.00000 2.250 1.000      4.360  23.000
  346 2.330 2.004  2.656 1.000 1.00000 2.320 1.000      2.776  23.000
  347 2.340 2.013  2.667 1.000 1.00000 2.340 1.000      5.065  23.000
  348 2.310 1.986  2.634 1.000 1.00000 2.310 1.000      1.317  23.000
  349 2.440 2.103  2.777 1.000 1.00000 2.440 1.000     20.062  23.000
  350 2.270 1.950  2.590 1.000 1.00000 2.270 1.000      3.307  23.000
  351 2.350 2.022  2.678 1.000 1.00000 2.350 1.000      7.197  23.000
  352 2.310 1.986  2.634 1.000 1.00000 2.310 1.000      0.692  23.000
  353 2.370 2.040  2.700 1.000 1.00000 2.370 1.000      9.374  23.000
  354 2.340 2.013  2.667 1.000 1.00000 2.340 1.000      6.319  23.000
  355 2.450 2.112  2.788 1.000 1.00000 2.440 1.000     25.133  23.000
  356 2.320 1.995  2.645 1.000 1.00000 2.310 1.000      1.210  23.000
  357 2.340 2.013  2.667 1.000 1.00000 2.340 1.000      4.669  23.000
  358 2.350 2.022  2.678 1.000 1.00000 2.350 1.000      6.359  23.000
  359 2.470 2.130  2.810 1.000 1.00000 2.480 1.000     25.284  23.000
  360 2.250 1.932  2.568 1.000 1.00000 2.250 1.000      4.846  23.000
  361 2.330 2.004  2.656 1.000 1.00000 2.340 1.000      3.654  23.000
  362 2.440 2.103  2.777 1.000 1.00000 2.440 1.000     20.821  23.000
  363 2.340 2.013  2.667 1.000 1.00000 2.340 1.000      4.657  23.000
  364 2.390 2.058  2.722 1.000 1.00000 2.380 1.000     14.736  23.000
  365 2.320 1.995  2.645 1.000 1.00000 2.310 1.000      1.606  23.000
  366 2.300 1.977  2.623 1.000 1.00000 2.300 1.000      0.480  23.000
  367 2.370 2.040  2.700 1.000 1.00000 2.370 1.000     10.673  23.000
  368 2.340 2.013  2.667 1.000 1.00000 2.340 1.000      5.874  23.000
  369 2.540 2.193  2.887 1.000 1.00000 2.540 1.000     44.668  23.000
  370 2.580 2.229  2.931 1.000 1.00000 2.580 1.000     57.326  23.000
  371 2.310 1.986  2.634 1.000 1.00000 2.310 1.000      0.549  23.000
  372 2.380 2.049  2.711 1.000 1.00000 2.380 1.000     13.529  23.000
  373 2.290 1.968  2.612 1.000 1.00000 2.300 1.000      1.109  23.000
  374 2.290 1.968  2.612 1.000 1.00000 2.290 1.000      1.972  23.000
  375 2.260 1.941  2.579 1.000 1.00000 2.270 1.000      4.369  23.000
  376 2.360 2.031  2.689 1.000 1.00000 2.350 1.000      7.476  23.000
  377 2.290 1.968  2.612 1.000 1.00000 2.290 1.000      1.609  23.000
  378 2.300 1.977  2.623 1.000 1.00000 2.300 1.000      0.772  23.000
  379 2.360 2.031  2.689 1.000 1.00000 2.350 1.000      8.526  23.000
  380 2.320 1.995  2.645 1.000 1.00000 2.320 1.000      2.169  23.000
  381 2.290 1.968  2.612 1.000 1.00000 2.290 1.000      1.639  23.000
  382 2.440 2.103  2.777 1.000 1.00000 2.440 1.000     19.069  23.000
  383 2.370 2.040  2.700 1.000 1.00000 2.370 1.000     11.570  23.000
  384 2.250 1.932  2.568 1.000 1.00000 2.250 1.000      3.949  23.000
  385 2.280 1.959  2.601 1.000 1.00000 2.290 1.000      3.090  23.000
  386 2.300 1.977  2.623 1.000 1.00000 2.300 1.000      0.434  23.000
  387 2.350 2.022  2.678 1.000 1.00000 2.350 1.000      6.704  23.000
  388 2.430 2.094  2.766 1.000 1.00000 2.440 1.000     18.923  23.000
  389 2.310 1.986  2.634 1.000 1.00000 2.310 1.000      0.964  23.000
  390 2.330 2.004  2.656 1.000 1.00000 2.330 1.000      2.415  23.000
  391 2.480 2.139  2.821 1.000 1.00000 2.480 1.000     28.027  23.000
  392 2.540 2.193  2.887 1.000 1.00000 2.540 1.000     36.856  23.000
  393 2.340 2.013  2.667 1.000 1.00000 2.340 1.000      6.417  23.000
  394 2.350 2.022  2.678 1.000 1.00000 2.350 1.000      7.377  23.000
  395 2.530 2.184  2.876 1.000 1.00000 2.530 1.000     34.514  23.000
  396 2.300 1.977  2.623 1.000 1.00000 2.300 1.000      0.461  23.000
  397 2.430 2.094  2.766 1.000 1.00000 2.430 1.000     16.182  23.000
  398 2.300 1.977  2.623 1.000 1.00000 2.300 1.000      0.440  23.000
  399 2.360 2.031  2.689 1.000 1.00000 2.350 1.000      8.364  23.000
  400 2.350 2.022  2.678 1.000 1.00000 2.350 1.000      5.607  23.000
  401 2.310 1.986  2.634 1.000 1.00000 2.310 1.000      0.445  23.000
  402 2.430 2.094  2.766 1.000 1.00000 2.440 1.000     15.488  23.000
  403 2.440 2.103  2.777 1.000 1.00000 2.440 1.000     24.678  23.000
  404 2.290 1.968  2.612 1.000 1.00000 2.300 1.000      1.048  23.000
  405 2.330 2.004  2.656 1.000 1.00000 2.330 1.000      3.097  23.000
  406 2.290 1.968  2.612 1.000 1.00000 2.290 1.000      1.772  23.000
  407 2.310 1.986  2.634 1.000 1.00000 2.310 1.000      1.168  23.000
  408 2.310 1.986  2.634 1.000 1.00000 2.310 1.000      0.855  23.000
  409 2.320 1.995  2.645 1.000 1.00000 2.320 1.000      1.809  23.000
  410 2.310 1.986  2.634 1.000 1.00000 2.310 1.000      1.198  23.000
  411 2.340 2.013  2.667 1.000 1.00000 2.340 1.000      4.917  23.000
  412 2.280 1.959  2.601 1.000 1.00000 2.290 1.000      2.825  23.000
  413 2.240 1.922  2.558 1.000 1.00000 2.240 1.000     15.520  23.000
  414 2.250 1.932  2.568 1.000 1.00000 2.250 1.000      5.141  23.000
  415 2.320 1.995  2.645 1.000 1.00000 2.320 1.000      1.729  23.000
  416 2.300 1.977  2.623 1.000 1.00000 2.300 1.000      0.438  23.000
  417 2.340 2.013  2.667 1.000 1.00000 2.340 1.000      5.409  23.000
  418 2.310 1.986  2.634 1.000 1.00000 2.310 1.000      1.075  23.000
  419 2.380 2.049  2.711 1.000 1.00000 2.380 1.000     13.430  23.000
  420 2.370 2.040  2.700 1.000 1.00000 2.370 1.000      9.782  23.000
  421 2.280 1.959  2.601 1.000 1.00000 2.270 1.000      3.085  23.000
  422 2.250 1.932  2.568 1.000 1.00000 2.250 1.000      4.601  23.000
  423 2.310 1.986  2.634 1.000 1.00000 2.310 1.000      0.596  23.000
  424 2.340 2.013  2.667 1.000 1.00000 2.340 1.000      4.252  23.000
  425 2.430 2.094  2.766 1.000 1.00000 2.440 1.000     17.294  23.000
  426 2.540 2.193  2.887 1.000 1.00000 2.540 1.000     38.427  23.000
  427 2.320 1.995  2.645 1.000 1.00000 2.320 1.000      2.307  23.000
  428 2.530 2.184  2.876 1.000 1.00000 2.540 1.000     35.471  23.000
  429 2.340 2.013  2.667 1.000 1.00000 2.340 1.000      6.617  23.000
  430 2.320 1.995  2.645 1.000 1.00000 2.310 1.000      1.755  23.000
  431 2.350 2.022  2.678 1.000 1.00000 2.350 1.000      7.523  23.000
  432 2.360 2.031  2.689 1.000 1.00000 2.350 1.000      9.435  23.000
  433 2.490 2.148  2.832 1.000 1.00000 2.490 1.000     31.532  23.000
  434 2.380 2.049  2.711 1.000 1.00000 2.380 1.000     12.659  23.000
  435 2.310 1.986  2.634 1.000 1.00000 2.310 1.000      0.572  23.000
  436 2.300 1.977  2.623 1.000 1.00000 2.300 1.000      0.472  23.000
  437 2.350 2.022  2.678 1.000 1.00000 2.350 1.000      7.355  23.000
  438 2.350 2.022  2.678 1.000 1.00000 2.350 1.000      6.187  23.000
  439 2.340 2.013  2.667 1.000 1.00000 2.340 1.000      5.526  23.000
  440 2.420 2.085  2.755 1.000 1.00000 2.430 1.000     16.451  23.000
  441 2.340 2.013  2.667 1.000 1.00000 2.340 1.000      5.555  23.000
  442 2.280 1.959  2.601 1.000 1.00000 2.290 1.000      2.515  23.000
  443 2.360 2.031  2.689 1.000 1.00000 2.350 1.000      7.103  23.000
  444 2.350 2.022  2.678 1.000 1.00000 2.350 1.000      7.544  23.000
  445 2.250 1.932  2.568 1.000 1.00000 2.250 1.000      4.136  23.000
  446 2.250 1.932  2.568 1.000 1.00000 2.250 1.000      4.407  23.000
  447 2.390 2.058  2.722 1.000 1.00000 2.380 1.000     14.091  23.000
  448 2.330 2.004  2.656 1.000 1.00000 2.330 1.000      3.137  23.000
  449 2.330 2.004  2.656 1.000 1.00000 2.340 1.000      4.287  23.000
  450 2.310 1.986  2.634 1.000 1.00000 2.310 1.000      1.168  23.000
  451 2.310 1.986  2.634 1.000 1.00000 2.310 1.000      0.404  23.000
  452 2.320 1.995  2.645 1.000 1.00000 2.320 1.000      2.518  23.000
  453 2.450 2.112  2.788 1.000 1.00000 2.440 1.000     25.729  23.000
  454 2.430 2.094  2.766 1.000 1.00000 2.440 1.000     16.443  23.000
  455 2.320 1.995  2.645 1.000 1.00000 2.320 1.000      1.945  23.000
  456 2.440 2.103  2.777 1.000 1.00000 2.440 1.000     22.533  23.000
  457 2.320 1.995  2.645 1.000 1.00000 2.310 1.000      1.657  23.000
  458 2.380 2.049  2.711 1.000 1.00000 2.380 1.000     12.893  23.000
  459 2.480 2.139  2.821 1.000 1.00000 2.480 1.000     26.030  23.000
  460 2.380 2.049  2.711 1.000 1.00000 2.370 1.000     13.160  23.000
  461 2.250 1.932  2.568 1.000 1.00000 2.250 1.000      5.692  23.000
  462 2.370 2.040  2.700 1.000 1.00000 2.370 1.000     10.154  23.000
  463 2.320 1.995  2.645 1.000 1.00000 2.320 1.000      2.092  23.000
  464 2.280 1.959  2.601 1.000 1.00000 2.270 1.000      3.191  23.000
  465 2.310 1.986  2.634 1.000 1.00000 2.310 1.000      0.443  23.000
  466 2.330 2.004  2.656 1.000 1.00000 2.340 1.000      3.505  23.000
  467 2.310 1.986  2.634 1.000 1.00000 2.310 1.000      0.427  23.000
  468 2.330 2.004  2.656 1.000 1.00000 2.340 1.000      4.764  23.000
  469 2.310 1.986  2.634 1.000 1.00000 2.310 1.000      0.423  23.000
  470 2.340 2.013  2.667 1.000 1.00000 2.340 1.000      6.630  23.000
  471 2.340 2.013  2.667 1.000 1.00000 2.340 1.000      5.437  23.000
  472 2.540 2.193  2.887 1.000 1.00000 2.540 1.000     35.995  23.000
  473 2.350 2.022  2.678 1.000 1.00000 2.350 1.000      7.247  23.000
  474 2.480 2.139  2.821 1.000 1.00000 2.480 1.000     28.899  23.000
  475 2.360 2.031  2.689 1.000 1.00000 2.370 1.000      8.690  23.000
  476 2.340 2.013  2.667 1.000 1.00000 2.340 1.000      6.418  23.000
  477 2.380 2.049  2.711 1.000 1.00000 2.380 1.000     13.204  23.000
  478 2.340 2.013  2.667 1.000 1.00000 2.340 1.000      5.743  23.000
  479 2.390 2.058  2.722 1.000 1.00000 2.380 1.000     14.195  23.000
  480 2.340 2.013  2.667 1.000 1.00000 2.340 1.000      3.967  23.000
  481 2.310 1.986  2.634 1.000 1.00000 2.310 1.000      0.807  23.000
  482 2.330 2.004  2.656 1.000 1.00000 2.320 1.000      2.607  23.000
  483 2.290 1.968  2.612 1.000 1.00000 2.290 1.000      2.509  23.000
  484 2.330 2.004  2.656 1.000 1.00000 2.330 1.000      3.615  23.000
  485 2.340 2.013  2.667 1.000 1.00000 2.340 1.000      5.523  23.000
  486 2.340 2.013  2.667 1.000 1.00000 2.340 1.000      5.499  23.000
  487 2.320 1.995  2.645 1.000 1.00000 2.320 1.000      2.772  23.000
  488 2.270 1.950  2.590 1.000 1.00000 2.270 1.000      3.837  23.000
  489 2.380 2.049  2.711 1.000 1.00000 2.370 1.000     13.251  23.000
  490 2.310 1.986  2.634 1.000 1.00000 2.310 1.000      0.446  23.000
  491 2.370 2.040  2.700 1.000 1.00000 2.370 1.000     11.182  23.000
  492 2.290 1.968  2.612 1.000 1.00000 2.300 1.000      1.134  23.000
  493 2.320 1.995  2.645 1.000 1.00000 2.320 1.000      1.970  23.000
  494 2.320 1.995  2.645 1.000 1.00000 2.320 1.000      1.819  23.000
  495 2.290 1.968  2.612 1.000 1.00000 2.290 1.000      1.816  23.000
  496 2.280 1.959  2.601 1.000 1.00000 2.290 1.000      2.447  23.000
  497 2.250 1.932  2.568 1.000 1.00000 2.250 1.000      4.356  23.000
  498 2.350 2.022  2.678 1.000 1.00000 2.350 1.000      7.053  23.000
  499 2.330 2.004  2.656 1.000 1.00000 2.340 1.000      4.075  23.000
  500 2.350 2.022  2.678 1.000 1.00000 2.350 1.000      3.874  23.000
  501 2.430 2.094  2.766 1.000 1.00000 2.440 1.000     15.841  23.000
  502 2.340 2.013  2.667 1.000 1.00000 2.340 1.000      5.121  23.000
  503 2.440 2.103  2.777 1.000 1.00000 2.440 1.000     18.443  23.000
  504 2.290 1.968  2.612 1.000 1.00000 2.300 1.000      1.670  23.000
  505 2.380 2.049  2.711 1.000 1.00000 2.370 1.000     12.078  23.000
  506 2.290 1.968  2.612 1.000 1.00000 2.290 1.000      1.918  23.000
  507 2.340 2.013  2.667 1.000 1.00000 2.340 1.000      6.668  23.000
  508 2.310 1.986  2.634 1.000 1.00000 2.310 1.000      1.049  23.000
  509 2.310 1.986  2.634 1.000 1.00000 2.310 1.000      0.650  23.000
  510 2.290 1.968  2.612 1.000 1.00000 2.290 1.000      1.503  23.000
  511 2.250 1.932  2.568 1.000 1.00000 2.250 1.000      4.817  23.000
  512 2.340 2.013  2.667 1.000 1.00000 2.340 1.000      4.435  23.000
  513 2.280 1.959  2.601 1.000 1.00000 2.290 1.000      2.093  23.000
  514 2.470 2.130  2.810 1.000 1.00000 2.480 1.000     26.575  23.000
  515 2.280 1.959  2.601 1.000 1.00000 2.270 1.000      2.835  23.000
  516 2.250 1.932  2.568 1.000 1.00000 2.250 1.000      3.927  23.000
  517 2.370 2.040  2.700 1.000 1.00000 2.370 1.000     11.870  23.000
  518 2.330 2.004  2.656 1.000 1.00000 2.340 1.000      3.705  23.000
  519 2.370 2.040  2.700 1.000 1.00000 2.370 1.000     10.966  23.000
  520 2.310 1.986  2.634 1.000 1.00000 2.310 1.000      0.472  23.000
  521 2.300 1.977  2.623 1.000 1.00000 2.300 1.000      0.586  23.000
  522 2.480 2.139  2.821 1.000 1.00000 2.480 1.000     25.344  23.000
  523 2.300 1.977  2.623 1.000 1.00000 2.310 1.000      0.380  23.000
  524 2.290 1.968  2.612 1.000 1.00000 2.290 1.000      1.351  23.000
  525 2.340 2.013  2.667 1.000 1.00000 2.340 1.000      4.996  23.000
  526 2.300 1.977  2.623 1.000 1.00000 2.300 1.000      0.451  23.000
  527 2.300 1.977  2.623 1.000 1.00000 2.300 1.000      0.439  23.000
  528 2.310 1.986  2.634 1.000 1.00000 2.310 1.000      0.606  23.000
  529 2.320 1.995  2.645 1.000 1.00000 2.320 1.000      1.903  23.000
  530 2.310 1.986  2.634 1.000 1.00000 2.310 1.000      0.574  23.000
  531 2.430 2.094  2.766 1.000 1.00000 2.440 1.000     15.423  23.000
  532 2.300 1.977  2.623 1.000 1.00000 2.300 1.000      0.465  23.000
  533 2.350 2.022  2.678 1.000 1.00000 2.350 1.000      4.381  23.000
  534 2.350 2.022  2.678 1.000 1.00000 2.350 1.000      7.924  23.000
  535 2.440 2.103  2.777 1.000 1.00000 2.440 1.000     20.111  23.000
  536 2.300 1.977  2.623 1.000 1.00000 2.300 1.000      0.378  23.000
  537 2.350 2.022  2.678 1.000 1.00000 2.350 1.000      5.808  23.000
  538 2.350 2.022  2.678 1.000 1.00000 2.350 1.000      5.706  23.000
  539 2.310 1.986  2.634 1.000 1.00000 2.310 1.000      0.466  23.000
  540 2.280 1.959  2.601 1.000 1.00000 2.270 1.000      3.230  23.000
  541 2.250 1.932  2.568 1.000 1.00000 2.250 1.000      5.618  23.000
  542 2.320 1.995  2.645 1.000 1.00000 2.320 1.000      1.917  23.000
  543 2.310 1.986  2.634 1.000 1.00000 2.310 1.000      0.446  23.000
  544 2.310 1.986  2.634 1.000 1.00000 2.310 1.000      0.535  23.000
  545 2.290 1.968  2.612 1.000 1.00000 2.290 1.000      1.361  23.000
  546 2.480 2.139  2.821 1.000 1.00000 2.480 1.000     24.095  23.000
  547 2.490 2.148  2.832 1.000 1.00000 2.480 1.000     31.280  23.000
  548 2.360 2.031  2.689 1.000 1.00000 2.370 1.000      8.983  23.000
  549 2.320 1.995  2.645 1.000 1.00000 2.320 1.000      1.915  23.000
  550 2.390 2.058  2.722 1.000 1.00000 2.380 1.000     14.796  23.000
  551 2.330 2.004  2.656 1.000 1.00000 2.340 1.000      4.236  23.000
  552 2.290 1.968  2.612 1.000 1.00000 2.290 1.000      1.954  23.000
  553 2.440 2.103  2.777 1.000 1.00000 2.440 1.000     23.954  23.000
  554 2.250 1.932  2.568 1.000 1.00000 2.250 1.000      4.138  23.000
  555 2.430 2.094  2.766 1.000 1.00000 2.440 1.000     14.714  23.000
  556 2.310 1.986  2.634 1.000 1.00000 2.310 1.000      0.565  23.000
  557 2.390 2.058  2.722 1.000 1.00000 2.380 1.000     14.539  23.000
  558 2.350 2.022  2.678 1.000 1.00000 2.350 1.000      6.208  23.000
  559 2.480 2.139  2.821 1.000 1.00000 2.480 1.000     30.632  23.000
  560 2.350 2.022  2.678 1.000 1.00000 2.350 1.000      5.882  23.000
  561 2.300 1.977  2.623 1.000 1.00000 2.300 1.000      0.494  23.000
  562 2.290 1.968  2.612 1.000 1.00000 2.300 1.000      0.955  23.000
  563 2.250 1.932  2.568 1.000 1.00000 2.250 1.000      5.146  23.000
  564 2.310 1.986  2.634 1.000 1.00000 2.310 1.000      0.991  23.000
  565 2.290 1.968  2.612 1.000 1.00000 2.290 1.000      1.660  23.000
  566 2.380 2.049  2.711 1.000 1.00000 2.380 1.000     14.049  23.000
  567 2.250 1.932  2.568 1.000 1.00000 2.250 1.000      5.449  23.000
  568 2.320 1.995  2.645 1.000 1.00000 2.310 1.000      1.683  23.000
  569 2.310 1.986  2.634 1.000 1.00000 2.310 1.000      0.700  23.000
  570 2.330 2.004  2.656 1.000 1.00000 2.330 1.000      3.857  23.000
  571 2.300 1.977  2.623 1.000 1.00000 2.300 1.000      1.258  23.000
  572 2.540 2.193  2.887 1.000 1.00000 2.540 1.000     44.155  23.000
  573 2.440 2.103  2.777 1.000 1.00000 2.440 1.000     21.534  23.000
  574 2.310 1.986  2.634 1.000 1.00000 2.310 1.000      0.713  23.000
  575 2.300 1.977  2.623 1.000 1.00000 2.300 1.000      1.002  23.000
  576 2.310 1.986  2.634 1.000 1.00000 2.310 1.000      0.477  23.000
  577 2.380 2.049  2.711 1.000 1.00000 2.380 1.000     13.532  23.000
  578 2.330 2.004  2.656 1.000 1.00000 2.340 1.000      3.644  23.000
  579 2.470 2.130  2.810 1.000 1.00000 2.480 1.000     27.880  23.000
  580 2.290 1.968  2.612 1.000 1.00000 2.300 1.000      1.366  23.000
  581 2.370 2.040  2.700 1.000 1.00000 2.370 1.000      9.691  23.000
  582 2.540 2.193  2.887 1.000 1.00000 2.540 1.000     34.941  23.000
  583 2.280 1.959  2.601 1.000 1.00000 2.290 1.000      2.519  23.000
  584 2.270 1.950  2.590 1.000 1.00000 2.270 1.000      3.400  23.000
  585 2.360 2.031  2.689 1.000 1.00000 2.350 1.000      8.672  23.000
  586 2.320 1.995  2.645 1.000 1.00000 2.320 1.000      1.607  23.000
  587 2.330 2.004  2.656 1.000 1.00000 2.340 1.000      4.275  23.000
  588 2.250 1.932  2.568 1.000 1.00000 2.250 1.000      6.790  23.000
  589 2.360 2.031  2.689 1.000 1.00000 2.350 1.000      8.881  23.000
  590 2.470 2.130  2.810 1.000 1.00000 2.470 1.000     26.808  23.000
  591 2.330 2.004  2.656 1.000 1.00000 2.330 1.000      2.724  23.000
  592 2.440 2.103  2.777 1.000 1.00000 2.440 1.000     20.594  23.000
  593 2.480 2.139  2.821 1.000 1.00000 2.480 1.000     27.034  23.000
  594 2.350 2.022  2.678 1.000 1.00000 2.350 1.000      6.978  23.000
  595 2.330 2.004  2.656 1.000 1.00000 2.330 1.000      3.221  23.000
  596 2.310 1.986  2.634 1.000 1.00000 2.310 1.000      0.957  23.000
  597 2.390 2.058  2.722 1.000 1.00000 2.380 1.000     12.879  23.000
  598 2.370 2.040  2.700 1.000 1.00000 2.370 1.000     12.506  23.000
  599 2.440 2.103  2.777 1.000 1.00000 2.440 1.000     24.364  23.000
  600 2.360 2.031  2.689 1.000 1.00000 2.370 1.000      9.957  23.000
