## File LOS/SB2_B2004a_3.0z_Mags_700.bpz  Fri Aug 12 23:39:23 2016
##
##Parameters used to run BPZ:
##
##AB_DIR=/home/lidenscheng/bpz-1.99.3//AB/
##ADD_CONTINUOUS_PROB=None
##ADD_SPEC_PROB=None
##CHECK=LOS/SB2_B2004a_3.0z_Mags_700.flux_comparison
##COLOR=no
##COLUMNS=losNoErrors.columns
##CONVOLVE_P=yes
##DELTA_M_0=0.0
##DZ=0.01
##EXCLUDE=none
##FC=None
##FILTER_DIR=/home/lidenscheng/MK_DirectSim/filters/
##GET_Z=yes
##INPUT=LOS/SB2_B2004a_3.0z_Mags_700.txt
##INTERACTIVE=yes
##INTERP=0
##MADAU=no
##MAG=yes
##MEAN_IGM=yes
##MERGE_PEAKS=no
##MIN_MAGERR=0.001
##MIN_RMS=0.05
##NEW_AB=no
##NMAX=None
##NTYPES=None
##N_PEAKS=1
##ODDS=0.95
##ONLY_TYPE=no
##OUTPUT=LOS/SB2_B2004a_3.0z_Mags_700.bpz
##PHOTO_ERRORS=no
##PLOTS=no
##PRIOR=none
##PROBS=no
##PROBS2=no
##PROBS_LITE=LOS/SB2_B2004a_3.0z_Mags_700.probs
##P_MIN=0.01
##SED_DIR=/home/lidenscheng/MK_DirectSim/SEDs/
##SPECTRA=SB2.list
##VERBOSE=yes
##ZC=None
##ZMAX=10.0
##ZMIN=0.01
##ZP_OFFSETS=0.0
##Z_THR=0
##
##Column information
##
# 1 ID
# 2 Z_B
# 3 Z_B_MIN
# 4 Z_B_MAX
# 5 T_B
# 6 ODDS    
# 7 Z_ML
# 8 T_ML
# 9 CHI-SQUARED
# 10 M_0
##
    1 3.080 2.680  3.480 1.000 1.00000 3.080 1.000      4.417  23.000
    2 3.120 2.716  3.524 1.000 1.00000 3.120 1.000      7.214  23.000
    3 3.130 2.725  3.535 1.000 1.00000 3.130 1.000     24.200  23.000
    4 3.110 2.707  3.513 1.000 1.00000 3.110 1.000      7.196  23.000
    5 3.100 2.698  3.502 1.000 1.00000 3.100 1.000      4.767  23.000
    6 3.090 2.689  3.491 1.000 1.00000 3.090 1.000     13.490  23.000
    7 3.120 2.716  3.524 1.000 1.00000 3.120 1.000      8.379  23.000
    8 3.080 2.680  3.480 1.000 1.00000 3.080 1.000     10.396  23.000
    9 3.110 2.707  3.513 1.000 1.00000 3.110 1.000     42.459  23.000
   10 3.110 2.707  3.513 1.000 1.00000 3.110 1.000     14.603  23.000
   11 3.110 2.707  3.513 1.000 1.00000 3.110 1.000      9.238  23.000
   12 3.070 2.671  3.469 1.000 1.00000 3.070 1.000      3.413  23.000
   13 3.090 2.689  3.491 1.000 1.00000 3.090 1.000      7.645  23.000
   14 3.110 2.707  3.513 1.000 1.00000 3.110 1.000     11.905  23.000
   15 3.100 2.698  3.502 1.000 1.00000 3.100 1.000     16.606  23.000
   16 3.100 2.698  3.502 1.000 1.00000 3.100 1.000      5.204  23.000
   17 3.090 2.689  3.491 1.000 1.00000 3.090 1.000      4.177  23.000
   18 3.120 2.716  3.524 1.000 1.00000 3.120 1.000      9.175  23.000
   19 3.070 2.671  3.469 1.000 1.00000 3.070 1.000      6.894  23.000
   20 3.070 2.671  3.469 1.000 1.00000 3.070 1.000     14.407  23.000
   21 3.070 2.671  3.469 1.000 1.00000 3.070 1.000      2.829  23.000
   22 3.100 2.698  3.502 1.000 1.00000 3.100 1.000      8.298  23.000
   23 3.060 2.662  3.458 1.000 1.00000 3.060 1.000      4.816  23.000
   24 3.050 2.653  3.447 1.000 1.00000 3.050 1.000      2.183  23.000
   25 3.120 2.716  3.524 1.000 1.00000 3.120 1.000      9.387  23.000
   26 3.100 2.698  3.502 1.000 1.00000 3.100 1.000      6.604  23.000
   27 3.040 2.644  3.436 1.000 1.00000 3.040 1.000      6.716  23.000
   28 3.100 2.698  3.502 1.000 1.00000 3.100 1.000      5.226  23.000
   29 3.070 2.671  3.469 1.000 1.00000 3.070 1.000      5.003  23.000
   30 3.070 2.671  3.469 1.000 1.00000 3.070 1.000      6.208  23.000
   31 3.110 2.707  3.513 1.000 1.00000 3.110 1.000      9.665  23.000
   32 3.080 2.680  3.480 1.000 1.00000 3.080 1.000      4.134  23.000
   33 3.090 2.689  3.491 1.000 1.00000 3.090 1.000      5.015  23.000
   34 3.070 2.671  3.469 1.000 1.00000 3.070 1.000      2.618  23.000
   35 3.070 2.671  3.469 1.000 1.00000 3.070 1.000      3.303  23.000
   36 3.090 2.689  3.491 1.000 1.00000 3.090 1.000     32.987  23.000
   37 3.070 2.671  3.469 1.000 1.00000 3.070 1.000      3.844  23.000
   38 3.090 2.689  3.491 1.000 1.00000 3.090 1.000     17.994  23.000
   39 3.070 2.671  3.469 1.000 1.00000 3.070 1.000      4.033  23.000
   40 3.090 2.689  3.491 1.000 1.00000 3.090 1.000      8.065  23.000
   41 3.110 2.707  3.513 1.000 1.00000 3.110 1.000     14.134  23.000
   42 3.070 2.671  3.469 1.000 1.00000 3.070 1.000     26.273  23.000
   43 3.100 2.698  3.502 1.000 1.00000 3.100 1.000      4.894  23.000
   44 3.090 2.689  3.491 1.000 1.00000 3.090 1.000      7.128  23.000
   45 3.080 2.680  3.480 1.000 1.00000 3.080 1.000      9.529  23.000
   46 3.040 2.644  3.436 1.000 1.00000 3.040 1.000      2.313  23.000
   47 3.080 2.680  3.480 1.000 1.00000 3.080 1.000      2.654  23.000
   48 3.080 2.680  3.480 1.000 1.00000 3.080 1.000     16.098  23.000
   49 3.100 2.698  3.502 1.000 1.00000 3.100 1.000     15.604  23.000
   50 3.070 2.671  3.469 1.000 1.00000 3.070 1.000      5.076  23.000
   51 3.090 2.689  3.491 1.000 1.00000 3.090 1.000     12.939  23.000
   52 3.110 2.707  3.513 1.000 1.00000 3.110 1.000      5.297  23.000
   53 3.060 2.662  3.458 1.000 1.00000 3.060 1.000      2.247  23.000
   54 3.140 2.734  3.546 1.000 1.00000 3.140 1.000     26.774  23.000
   55 3.110 2.707  3.513 1.000 1.00000 3.110 1.000      6.459  23.000
   56 3.100 2.698  3.502 1.000 1.00000 3.100 1.000     16.326  23.000
   57 3.080 2.680  3.480 1.000 1.00000 3.080 1.000     10.067  23.000
   58 3.090 2.689  3.491 1.000 1.00000 3.090 1.000     24.326  23.000
   59 3.110 2.707  3.513 1.000 1.00000 3.110 1.000      5.815  23.000
   60 3.090 2.689  3.491 1.000 1.00000 3.090 1.000      7.614  23.000
   61 3.060 2.662  3.458 1.000 1.00000 3.060 1.000      2.525  23.000
   62 3.080 2.680  3.480 1.000 1.00000 3.080 1.000     11.856  23.000
   63 3.100 2.698  3.502 1.000 1.00000 3.100 1.000      4.700  23.000
   64 3.060 2.662  3.458 1.000 1.00000 3.060 1.000      8.253  23.000
   65 3.090 2.689  3.491 1.000 1.00000 3.090 1.000      5.212  23.000
   66 3.070 2.671  3.469 1.000 1.00000 3.070 1.000      3.262  23.000
   67 3.090 2.689  3.491 1.000 1.00000 3.090 1.000      4.591  23.000
   68 3.120 2.716  3.524 1.000 1.00000 3.120 1.000     14.335  23.000
   69 3.110 2.707  3.513 1.000 1.00000 3.110 1.000     26.490  23.000
   70 3.080 2.680  3.480 1.000 1.00000 3.080 1.000      2.496  23.000
   71 3.070 2.671  3.469 1.000 1.00000 3.070 1.000      4.986  23.000
   72 3.080 2.680  3.480 1.000 1.00000 3.080 1.000     16.914  23.000
   73 3.080 2.680  3.480 1.000 1.00000 3.080 1.000     19.646  23.000
   74 3.080 2.680  3.480 1.000 1.00000 3.080 1.000     15.942  23.000
   75 3.040 2.644  3.436 1.000 1.00000 3.040 1.000      1.995  23.000
   76 3.090 2.689  3.491 1.000 1.00000 3.090 1.000      3.260  23.000
   77 3.070 2.671  3.469 1.000 1.00000 3.070 1.000      4.182  23.000
   78 3.110 2.707  3.513 1.000 1.00000 3.110 1.000      8.815  23.000
   79 3.110 2.707  3.513 1.000 1.00000 3.110 1.000      8.357  23.000
   80 3.100 2.698  3.502 1.000 1.00000 3.100 1.000     12.287  23.000
   81 3.100 2.698  3.502 1.000 1.00000 3.100 1.000      8.253  23.000
   82 3.070 2.671  3.469 1.000 1.00000 3.070 1.000      2.058  23.000
   83 3.080 2.680  3.480 1.000 1.00000 3.080 1.000      3.151  23.000
   84 3.130 2.725  3.535 1.000 1.00000 3.130 1.000     11.290  23.000
   85 3.100 2.698  3.502 1.000 1.00000 3.100 1.000     34.427  23.000
   86 3.120 2.716  3.524 1.000 1.00000 3.120 1.000     17.222  23.000
   87 3.110 2.707  3.513 1.000 1.00000 3.110 1.000     24.041  23.000
   88 3.110 2.707  3.513 1.000 1.00000 3.110 1.000      5.564  23.000
   89 3.130 2.725  3.535 1.000 1.00000 3.130 1.000     12.002  23.000
   90 3.100 2.698  3.502 1.000 1.00000 3.100 1.000     17.279  23.000
   91 3.050 2.653  3.447 1.000 1.00000 3.050 1.000     21.651  23.000
   92 3.110 2.707  3.513 1.000 1.00000 3.110 1.000     10.327  23.000
   93 3.080 2.680  3.480 1.000 1.00000 3.080 1.000     12.199  23.000
   94 3.060 2.662  3.458 1.000 1.00000 3.060 1.000      2.598  23.000
   95 3.110 2.707  3.513 1.000 1.00000 3.110 1.000      8.515  23.000
   96 3.070 2.671  3.469 1.000 1.00000 3.070 1.000      4.959  23.000
   97 3.100 2.698  3.502 1.000 1.00000 3.100 1.000      7.427  23.000
   98 3.100 2.698  3.502 1.000 1.00000 3.100 1.000      4.242  23.000
   99 3.110 2.707  3.513 1.000 1.00000 3.110 1.000      5.545  23.000
  100 3.050 2.653  3.447 1.000 1.00000 3.050 1.000      8.001  23.000
  101 3.060 2.662  3.458 1.000 1.00000 3.060 1.000      2.737  23.000
  102 3.090 2.689  3.491 1.000 1.00000 3.090 1.000     41.591  23.000
  103 3.110 2.707  3.513 1.000 1.00000 3.110 1.000     14.718  23.000
  104 3.090 2.689  3.491 1.000 1.00000 3.090 1.000      5.975  23.000
  105 3.080 2.680  3.480 1.000 1.00000 3.080 1.000     17.467  23.000
  106 3.090 2.689  3.491 1.000 1.00000 3.090 1.000     27.020  23.000
  107 3.080 2.680  3.480 1.000 1.00000 3.080 1.000     12.053  23.000
  108 3.080 2.680  3.480 1.000 1.00000 3.080 1.000      3.298  23.000
  109 3.090 2.689  3.491 1.000 1.00000 3.090 1.000     10.413  23.000
  110 3.070 2.671  3.469 1.000 1.00000 3.070 1.000      4.022  23.000
  111 3.090 2.689  3.491 1.000 1.00000 3.090 1.000      3.338  23.000
  112 3.100 2.698  3.502 1.000 1.00000 3.100 1.000     27.837  23.000
  113 3.080 2.680  3.480 1.000 1.00000 3.080 1.000      6.399  23.000
  114 3.070 2.671  3.469 1.000 1.00000 3.070 1.000     26.140  23.000
  115 3.060 2.662  3.458 1.000 1.00000 3.060 1.000      9.644  23.000
  116 3.060 2.662  3.458 1.000 1.00000 3.060 1.000     18.240  23.000
  117 3.080 2.680  3.480 1.000 1.00000 3.080 1.000      3.340  23.000
  118 3.100 2.698  3.502 1.000 1.00000 3.100 1.000      8.793  23.000
  119 3.070 2.671  3.469 1.000 1.00000 3.070 1.000      5.525  23.000
  120 3.070 2.671  3.469 1.000 1.00000 3.070 1.000      6.295  23.000
  121 3.090 2.689  3.491 1.000 1.00000 3.090 1.000      6.453  23.000
  122 3.090 2.689  3.491 1.000 1.00000 3.090 1.000      3.354  23.000
  123 3.080 2.680  3.480 1.000 1.00000 3.080 1.000     18.603  23.000
  124 3.090 2.689  3.491 1.000 1.00000 3.090 1.000      8.082  23.000
  125 3.120 2.716  3.524 1.000 1.00000 3.120 1.000     12.579  23.000
  126 3.060 2.662  3.458 1.000 1.00000 3.060 1.000      3.723  23.000
  127 3.080 2.680  3.480 1.000 1.00000 3.080 1.000      4.533  23.000
  128 3.100 2.698  3.502 1.000 1.00000 3.100 1.000      6.923  23.000
  129 3.100 2.698  3.502 1.000 1.00000 3.100 1.000      7.631  23.000
  130 3.080 2.680  3.480 1.000 1.00000 3.080 1.000      8.485  23.000
  131 3.080 2.680  3.480 1.000 1.00000 3.080 1.000      7.021  23.000
  132 3.090 2.689  3.491 1.000 1.00000 3.090 1.000      6.839  23.000
  133 3.080 2.680  3.480 1.000 1.00000 3.080 1.000      9.306  23.000
  134 3.070 2.671  3.469 1.000 1.00000 3.070 1.000      5.467  23.000
  135 3.080 2.680  3.480 1.000 1.00000 3.080 1.000     14.535  23.000
  136 3.120 2.716  3.524 1.000 1.00000 3.120 1.000     10.990  23.000
  137 3.110 2.707  3.513 1.000 1.00000 3.110 1.000     15.723  23.000
  138 3.080 2.680  3.480 1.000 1.00000 3.080 1.000      6.874  23.000
  139 3.110 2.707  3.513 1.000 1.00000 3.110 1.000      6.238  23.000
  140 3.110 2.707  3.513 1.000 1.00000 3.110 1.000     38.248  23.000
  141 3.060 2.662  3.458 1.000 1.00000 3.060 1.000      6.806  23.000
  142 3.110 2.707  3.513 1.000 1.00000 3.110 1.000      6.166  23.000
  143 3.100 2.698  3.502 1.000 1.00000 3.100 1.000     11.943  23.000
  144 3.100 2.698  3.502 1.000 1.00000 3.100 1.000      5.819  23.000
  145 3.070 2.671  3.469 1.000 1.00000 3.070 1.000     17.943  23.000
  146 3.060 2.662  3.458 1.000 1.00000 3.060 1.000     15.880  23.000
  147 3.120 2.716  3.524 1.000 1.00000 3.120 1.000      7.058  23.000
  148 3.060 2.662  3.458 1.000 1.00000 3.060 1.000      4.286  23.000
  149 3.070 2.671  3.469 1.000 1.00000 3.070 1.000      2.023  23.000
  150 3.080 2.680  3.480 1.000 1.00000 3.080 1.000     11.575  23.000
  151 3.070 2.671  3.469 1.000 1.00000 3.070 1.000      2.598  23.000
  152 3.100 2.698  3.502 1.000 1.00000 3.100 1.000     18.459  23.000
  153 3.070 2.671  3.469 1.000 1.00000 3.070 1.000      1.799  23.000
  154 3.080 2.680  3.480 1.000 1.00000 3.080 1.000      8.033  23.000
  155 3.090 2.689  3.491 1.000 1.00000 3.090 1.000      5.589  23.000
  156 3.100 2.698  3.502 1.000 1.00000 3.100 1.000      8.119  23.000
  157 3.080 2.680  3.480 1.000 1.00000 3.080 1.000      5.327  23.000
  158 3.080 2.680  3.480 1.000 1.00000 3.080 1.000      6.858  23.000
  159 3.060 2.662  3.458 1.000 1.00000 3.060 1.000     30.923  23.000
  160 3.120 2.716  3.524 1.000 1.00000 3.120 1.000     10.595  23.000
  161 3.100 2.698  3.502 1.000 1.00000 3.100 1.000     10.199  23.000
  162 3.120 2.716  3.524 1.000 1.00000 3.120 1.000     19.383  23.000
  163 3.130 2.725  3.535 1.000 1.00000 3.130 1.000     13.907  23.000
  164 3.090 2.689  3.491 1.000 1.00000 3.090 1.000      5.946  23.000
  165 3.070 2.671  3.469 1.000 1.00000 3.070 1.000      3.361  23.000
  166 3.090 2.689  3.491 1.000 1.00000 3.090 1.000      3.728  23.000
  167 3.100 2.698  3.502 1.000 1.00000 3.100 1.000     18.579  23.000
  168 3.080 2.680  3.480 1.000 1.00000 3.080 1.000     25.388  23.000
  169 3.060 2.662  3.458 1.000 1.00000 3.060 1.000      4.992  23.000
  170 3.100 2.698  3.502 1.000 1.00000 3.100 1.000      3.960  23.000
  171 3.110 2.707  3.513 1.000 1.00000 3.110 1.000      7.788  23.000
  172 3.050 2.653  3.447 1.000 1.00000 3.050 1.000      1.052  23.000
  173 3.090 2.689  3.491 1.000 1.00000 3.090 1.000      3.370  23.000
  174 3.070 2.671  3.469 1.000 1.00000 3.070 1.000     31.552  23.000
  175 3.060 2.662  3.458 1.000 1.00000 3.060 1.000      6.135  23.000
  176 3.120 2.716  3.524 1.000 1.00000 3.120 1.000     10.326  23.000
  177 3.080 2.680  3.480 1.000 1.00000 3.080 1.000     17.740  23.000
  178 3.060 2.662  3.458 1.000 1.00000 3.060 1.000      4.226  23.000
  179 3.100 2.698  3.502 1.000 1.00000 3.100 1.000      6.680  23.000
  180 3.050 2.653  3.447 1.000 1.00000 3.050 1.000      4.135  23.000
  181 3.070 2.671  3.469 1.000 1.00000 3.070 1.000      6.439  23.000
  182 3.070 2.671  3.469 1.000 1.00000 3.070 1.000     14.786  23.000
  183 3.090 2.689  3.491 1.000 1.00000 3.090 1.000      5.800  23.000
  184 3.080 2.680  3.480 1.000 1.00000 3.080 1.000     19.294  23.000
  185 3.070 2.671  3.469 1.000 1.00000 3.070 1.000      2.298  23.000
  186 3.110 2.707  3.513 1.000 1.00000 3.110 1.000     10.004  23.000
  187 3.080 2.680  3.480 1.000 1.00000 3.080 1.000      4.731  23.000
  188 3.070 2.671  3.469 1.000 1.00000 3.070 1.000      7.716  23.000
  189 3.090 2.689  3.491 1.000 1.00000 3.090 1.000      8.852  23.000
  190 3.120 2.716  3.524 1.000 1.00000 3.120 1.000     19.108  23.000
  191 3.080 2.680  3.480 1.000 1.00000 3.080 1.000     15.115  23.000
  192 3.150 2.743  3.557 1.000 1.00000 3.150 1.000     17.038  23.000
  193 3.070 2.671  3.469 1.000 1.00000 3.070 1.000     18.789  23.000
  194 3.100 2.698  3.502 1.000 1.00000 3.100 1.000      7.978  23.000
  195 3.070 2.671  3.469 1.000 1.00000 3.070 1.000      2.124  23.000
  196 3.130 2.725  3.535 1.000 1.00000 3.130 1.000     24.950  23.000
  197 3.030 2.635  3.425 1.000 1.00000 3.030 1.000     21.785  23.000
  198 3.100 2.698  3.502 1.000 1.00000 3.100 1.000     39.797  23.000
  199 3.080 2.680  3.480 1.000 1.00000 3.080 1.000      8.072  23.000
  200 3.080 2.680  3.480 1.000 1.00000 3.080 1.000      2.250  23.000
  201 3.070 2.671  3.469 1.000 1.00000 3.070 1.000      2.161  23.000
  202 3.080 2.680  3.480 1.000 1.00000 3.080 1.000      9.779  23.000
  203 3.100 2.698  3.502 1.000 1.00000 3.100 1.000      4.713  23.000
  204 3.100 2.698  3.502 1.000 1.00000 3.100 1.000      5.718  23.000
  205 3.090 2.689  3.491 1.000 1.00000 3.090 1.000      8.542  23.000
  206 3.060 2.662  3.458 1.000 1.00000 3.060 1.000      2.362  23.000
  207 3.060 2.662  3.458 1.000 1.00000 3.060 1.000      4.774  23.000
  208 3.110 2.707  3.513 1.000 1.00000 3.110 1.000      6.792  23.000
  209 3.050 2.653  3.447 1.000 1.00000 3.050 1.000      8.395  23.000
  210 3.090 2.689  3.491 1.000 1.00000 3.090 1.000      5.881  23.000
  211 3.090 2.689  3.491 1.000 1.00000 3.090 1.000     23.680  23.000
  212 3.140 2.734  3.546 1.000 1.00000 3.140 1.000     15.410  23.000
  213 3.080 2.680  3.480 1.000 1.00000 3.080 1.000      4.698  23.000
  214 3.060 2.662  3.458 1.000 1.00000 3.060 1.000      6.973  23.000
  215 3.090 2.689  3.491 1.000 1.00000 3.090 1.000      2.850  23.000
  216 3.080 2.680  3.480 1.000 1.00000 3.080 1.000      5.464  23.000
  217 3.080 2.680  3.480 1.000 1.00000 3.080 1.000      4.391  23.000
  218 3.100 2.698  3.502 1.000 1.00000 3.100 1.000     19.885  23.000
  219 3.080 2.680  3.480 1.000 1.00000 3.080 1.000      3.224  23.000
  220 3.060 2.662  3.458 1.000 1.00000 3.060 1.000      1.627  23.000
  221 3.100 2.698  3.502 1.000 1.00000 3.100 1.000      3.860  23.000
  222 3.070 2.671  3.469 1.000 1.00000 3.070 1.000      2.805  23.000
  223 3.070 2.671  3.469 1.000 1.00000 3.070 1.000      2.456  23.000
  224 3.090 2.689  3.491 1.000 1.00000 3.090 1.000      3.213  23.000
  225 3.060 2.662  3.458 1.000 1.00000 3.060 1.000     14.050  23.000
  226 3.080 2.680  3.480 1.000 1.00000 3.080 1.000      6.302  23.000
  227 3.100 2.698  3.502 1.000 1.00000 3.100 1.000     15.929  23.000
  228 3.120 2.716  3.524 1.000 1.00000 3.120 1.000      8.284  23.000
  229 3.080 2.680  3.480 1.000 1.00000 3.080 1.000      2.404  23.000
  230 3.090 2.689  3.491 1.000 1.00000 3.090 1.000     12.833  23.000
  231 3.100 2.698  3.502 1.000 1.00000 3.100 1.000     31.855  23.000
  232 3.110 2.707  3.513 1.000 1.00000 3.110 1.000     31.134  23.000
  233 3.110 2.707  3.513 1.000 1.00000 3.110 1.000      9.071  23.000
  234 3.100 2.698  3.502 1.000 1.00000 3.100 1.000      4.183  23.000
  235 3.090 2.689  3.491 1.000 1.00000 3.090 1.000     13.190  23.000
  236 3.080 2.680  3.480 1.000 1.00000 3.080 1.000     13.573  23.000
  237 3.050 2.653  3.447 1.000 1.00000 3.050 1.000      1.178  23.000
  238 3.130 2.725  3.535 1.000 1.00000 3.130 1.000     16.787  23.000
  239 3.110 2.707  3.513 1.000 1.00000 3.110 1.000      6.958  23.000
  240 3.080 2.680  3.480 1.000 1.00000 3.080 1.000      4.260  23.000
  241 3.100 2.698  3.502 1.000 1.00000 3.100 1.000     18.142  23.000
  242 3.080 2.680  3.480 1.000 1.00000 3.080 1.000      2.115  23.000
  243 3.070 2.671  3.469 1.000 1.00000 3.070 1.000      2.469  23.000
  244 3.070 2.671  3.469 1.000 1.00000 3.070 1.000      2.298  23.000
  245 3.090 2.689  3.491 1.000 1.00000 3.090 1.000     13.676  23.000
  246 3.100 2.698  3.502 1.000 1.00000 3.100 1.000     34.930  23.000
  247 3.050 2.653  3.447 1.000 1.00000 3.050 1.000      1.585  23.000
  248 3.080 2.680  3.480 1.000 1.00000 3.080 1.000      2.264  23.000
  249 3.080 2.680  3.480 1.000 1.00000 3.080 1.000     13.355  23.000
  250 3.110 2.707  3.513 1.000 1.00000 3.110 1.000     17.328  23.000
  251 3.120 2.716  3.524 1.000 1.00000 3.120 1.000      8.870  23.000
  252 3.070 2.671  3.469 1.000 1.00000 3.070 1.000      4.081  23.000
  253 3.100 2.698  3.502 1.000 1.00000 3.100 1.000     10.721  23.000
  254 3.130 2.725  3.535 1.000 1.00000 3.130 1.000     19.458  23.000
  255 3.060 2.662  3.458 1.000 1.00000 3.060 1.000      6.356  23.000
  256 3.110 2.707  3.513 1.000 1.00000 3.110 1.000     21.496  23.000
  257 3.090 2.689  3.491 1.000 1.00000 3.090 1.000      8.039  23.000
  258 3.070 2.671  3.469 1.000 1.00000 3.070 1.000      8.612  23.000
  259 3.080 2.680  3.480 1.000 1.00000 3.080 1.000      5.557  23.000
  260 3.100 2.698  3.502 1.000 1.00000 3.100 1.000      7.414  23.000
  261 3.100 2.698  3.502 1.000 1.00000 3.100 1.000     18.680  23.000
  262 3.130 2.725  3.535 1.000 1.00000 3.130 1.000     32.886  23.000
  263 3.090 2.689  3.491 1.000 1.00000 3.090 1.000      7.110  23.000
  264 3.070 2.671  3.469 1.000 1.00000 3.070 1.000      4.887  23.000
  265 3.080 2.680  3.480 1.000 1.00000 3.080 1.000      8.866  23.000
  266 3.090 2.689  3.491 1.000 1.00000 3.090 1.000      7.079  23.000
  267 3.090 2.689  3.491 1.000 1.00000 3.090 1.000      9.844  23.000
  268 3.030 2.635  3.425 1.000 1.00000 3.030 1.000      3.497  23.000
  269 3.070 2.671  3.469 1.000 1.00000 3.070 1.000      4.283  23.000
  270 3.070 2.671  3.469 1.000 1.00000 3.070 1.000     10.582  23.000
  271 3.070 2.671  3.469 1.000 1.00000 3.070 1.000     10.103  23.000
  272 3.100 2.698  3.502 1.000 1.00000 3.100 1.000     21.908  23.000
  273 3.100 2.698  3.502 1.000 1.00000 3.100 1.000      9.589  23.000
  274 3.080 2.680  3.480 1.000 1.00000 3.080 1.000     15.059  23.000
  275 3.080 2.680  3.480 1.000 1.00000 3.080 1.000      6.896  23.000
  276 3.070 2.671  3.469 1.000 1.00000 3.070 1.000      3.713  23.000
  277 3.080 2.680  3.480 1.000 1.00000 3.080 1.000     17.648  23.000
  278 3.090 2.689  3.491 1.000 1.00000 3.090 1.000      6.627  23.000
  279 3.050 2.653  3.447 1.000 1.00000 3.050 1.000      7.599  23.000
  280 3.100 2.698  3.502 1.000 1.00000 3.100 1.000     12.795  23.000
  281 3.090 2.689  3.491 1.000 1.00000 3.090 1.000      4.050  23.000
  282 3.080 2.680  3.480 1.000 1.00000 3.080 1.000      3.759  23.000
  283 3.060 2.662  3.458 1.000 1.00000 3.060 1.000      1.733  23.000
  284 3.100 2.698  3.502 1.000 1.00000 3.100 1.000      6.969  23.000
  285 3.090 2.689  3.491 1.000 1.00000 3.090 1.000      5.057  23.000
  286 3.050 2.653  3.447 1.000 1.00000 3.050 1.000      1.329  23.000
  287 3.090 2.689  3.491 1.000 1.00000 3.090 1.000      3.437  23.000
  288 3.070 2.671  3.469 1.000 1.00000 3.070 1.000     12.812  23.000
  289 3.080 2.680  3.480 1.000 1.00000 3.080 1.000      4.275  23.000
  290 3.090 2.689  3.491 1.000 1.00000 3.090 1.000     20.340  23.000
  291 3.060 2.662  3.458 1.000 1.00000 3.060 1.000      3.182  23.000
  292 3.080 2.680  3.480 1.000 1.00000 3.080 1.000     20.034  23.000
  293 3.060 2.662  3.458 1.000 1.00000 3.060 1.000      2.802  23.000
  294 3.070 2.671  3.469 1.000 1.00000 3.070 1.000     13.015  23.000
  295 3.090 2.689  3.491 1.000 1.00000 3.090 1.000      6.280  23.000
  296 3.120 2.716  3.524 1.000 1.00000 3.120 1.000      8.542  23.000
  297 3.150 2.743  3.557 1.000 1.00000 3.150 1.000     24.504  23.000
  298 3.120 2.716  3.524 1.000 1.00000 3.120 1.000      7.694  23.000
  299 3.080 2.680  3.480 1.000 1.00000 3.080 1.000     18.945  23.000
  300 3.070 2.671  3.469 1.000 1.00000 3.070 1.000      6.813  23.000
  301 3.100 2.698  3.502 1.000 1.00000 3.100 1.000      6.668  23.000
  302 3.100 2.698  3.502 1.000 1.00000 3.100 1.000      5.760  23.000
  303 3.050 2.653  3.447 1.000 1.00000 3.050 1.000      6.772  23.000
  304 3.080 2.680  3.480 1.000 1.00000 3.080 1.000      2.952  23.000
  305 3.100 2.698  3.502 1.000 1.00000 3.100 1.000      6.808  23.000
  306 3.100 2.698  3.502 1.000 1.00000 3.100 1.000     44.388  23.000
  307 3.110 2.707  3.513 1.000 1.00000 3.110 1.000     12.259  23.000
  308 3.070 2.671  3.469 1.000 1.00000 3.070 1.000      5.866  23.000
  309 3.070 2.671  3.469 1.000 1.00000 3.070 1.000      2.337  23.000
  310 3.110 2.707  3.513 1.000 1.00000 3.110 1.000     10.935  23.000
  311 3.110 2.707  3.513 1.000 1.00000 3.110 1.000     13.503  23.000
  312 3.070 2.671  3.469 1.000 1.00000 3.070 1.000      7.333  23.000
  313 3.090 2.689  3.491 1.000 1.00000 3.090 1.000     17.163  23.000
  314 3.080 2.680  3.480 1.000 1.00000 3.080 1.000      2.295  23.000
  315 3.110 2.707  3.513 1.000 1.00000 3.110 1.000     10.401  23.000
  316 3.070 2.671  3.469 1.000 1.00000 3.070 1.000     10.290  23.000
  317 3.090 2.689  3.491 1.000 1.00000 3.090 1.000      5.377  23.000
  318 3.090 2.689  3.491 1.000 1.00000 3.090 1.000      6.043  23.000
  319 3.090 2.689  3.491 1.000 1.00000 3.090 1.000      3.305  23.000
  320 3.080 2.680  3.480 1.000 1.00000 3.080 1.000     11.927  23.000
  321 3.080 2.680  3.480 1.000 1.00000 3.080 1.000      6.623  23.000
  322 3.100 2.698  3.502 1.000 1.00000 3.100 1.000     23.320  23.000
  323 3.080 2.680  3.480 1.000 1.00000 3.080 1.000     26.173  23.000
  324 3.150 2.743  3.557 1.000 1.00000 3.150 1.000     21.215  23.000
  325 3.090 2.689  3.491 1.000 1.00000 3.090 1.000     11.622  23.000
  326 3.110 2.707  3.513 1.000 1.00000 3.110 1.000     31.997  23.000
  327 3.060 2.662  3.458 1.000 1.00000 3.060 1.000      9.648  23.000
  328 3.110 2.707  3.513 1.000 1.00000 3.110 1.000     13.395  23.000
  329 3.090 2.689  3.491 1.000 1.00000 3.090 1.000      8.265  23.000
  330 3.090 2.689  3.491 1.000 1.00000 3.090 1.000     18.127  23.000
  331 3.090 2.689  3.491 1.000 1.00000 3.090 1.000     19.294  23.000
  332 3.060 2.662  3.458 1.000 1.00000 3.060 1.000      3.036  23.000
  333 3.070 2.671  3.469 1.000 1.00000 3.070 1.000      4.132  23.000
  334 3.070 2.671  3.469 1.000 1.00000 3.070 1.000      2.811  23.000
  335 3.080 2.680  3.480 1.000 1.00000 3.080 1.000      4.818  23.000
  336 3.080 2.680  3.480 1.000 1.00000 3.080 1.000      4.218  23.000
  337 3.090 2.689  3.491 1.000 1.00000 3.090 1.000      8.164  23.000
  338 3.050 2.653  3.447 1.000 1.00000 3.050 1.000      6.238  23.000
  339 3.140 2.734  3.546 1.000 1.00000 3.140 1.000     12.758  23.000
  340 3.100 2.698  3.502 1.000 1.00000 3.100 1.000     10.017  23.000
  341 3.090 2.689  3.491 1.000 1.00000 3.090 1.000      5.401  23.000
  342 3.070 2.671  3.469 1.000 1.00000 3.070 1.000      4.076  23.000
  343 3.130 2.725  3.535 1.000 1.00000 3.130 1.000     16.816  23.000
  344 3.080 2.680  3.480 1.000 1.00000 3.080 1.000      3.691  23.000
  345 3.120 2.716  3.524 1.000 1.00000 3.120 1.000     10.152  23.000
  346 3.100 2.698  3.502 1.000 1.00000 3.100 1.000     11.057  23.000
  347 3.050 2.653  3.447 1.000 1.00000 3.050 1.000      1.999  23.000
  348 3.110 2.707  3.513 1.000 1.00000 3.110 1.000      8.839  23.000
  349 3.140 2.734  3.546 1.000 1.00000 3.140 1.000     13.375  23.000
  350 3.090 2.689  3.491 1.000 1.00000 3.090 1.000     11.140  23.000
  351 3.060 2.662  3.458 1.000 1.00000 3.060 1.000      9.630  23.000
  352 3.080 2.680  3.480 1.000 1.00000 3.080 1.000     26.705  23.000
  353 3.090 2.689  3.491 1.000 1.00000 3.090 1.000     37.354  23.000
  354 3.040 2.644  3.436 1.000 1.00000 3.040 1.000      4.506  23.000
  355 3.090 2.689  3.491 1.000 1.00000 3.090 1.000     10.924  23.000
  356 3.080 2.680  3.480 1.000 1.00000 3.080 1.000      7.337  23.000
  357 3.100 2.698  3.502 1.000 1.00000 3.100 1.000     10.461  23.000
  358 3.080 2.680  3.480 1.000 1.00000 3.080 1.000      2.072  23.000
  359 3.100 2.698  3.502 1.000 1.00000 3.100 1.000      4.554  23.000
  360 3.110 2.707  3.513 1.000 1.00000 3.110 1.000     10.467  23.000
  361 3.100 2.698  3.502 1.000 1.00000 3.100 1.000     11.359  23.000
  362 3.110 2.707  3.513 1.000 1.00000 3.110 1.000      8.966  23.000
  363 3.100 2.698  3.502 1.000 1.00000 3.100 1.000      4.761  23.000
  364 3.070 2.671  3.469 1.000 1.00000 3.070 1.000      3.200  23.000
  365 3.090 2.689  3.491 1.000 1.00000 3.090 1.000     10.316  23.000
  366 3.110 2.707  3.513 1.000 1.00000 3.110 1.000      6.990  23.000
  367 3.090 2.689  3.491 1.000 1.00000 3.090 1.000      6.506  23.000
  368 3.090 2.689  3.491 1.000 1.00000 3.090 1.000     10.115  23.000
  369 3.080 2.680  3.480 1.000 1.00000 3.080 1.000      2.145  23.000
  370 3.090 2.689  3.491 1.000 1.00000 3.090 1.000      6.503  23.000
  371 3.090 2.689  3.491 1.000 1.00000 3.090 1.000     11.651  23.000
  372 3.100 2.698  3.502 1.000 1.00000 3.100 1.000      4.735  23.000
  373 3.090 2.689  3.491 1.000 1.00000 3.090 1.000     26.205  23.000
  374 3.090 2.689  3.491 1.000 1.00000 3.090 1.000      8.551  23.000
  375 3.080 2.680  3.480 1.000 1.00000 3.080 1.000     10.152  23.000
  376 3.080 2.680  3.480 1.000 1.00000 3.080 1.000     12.892  23.000
  377 3.060 2.662  3.458 1.000 1.00000 3.060 1.000     16.055  23.000
  378 3.100 2.698  3.502 1.000 1.00000 3.100 1.000     10.779  23.000
  379 3.100 2.698  3.502 1.000 1.00000 3.100 1.000     11.564  23.000
  380 3.120 2.716  3.524 1.000 1.00000 3.120 1.000     12.129  23.000
  381 3.080 2.680  3.480 1.000 1.00000 3.080 1.000      8.013  23.000
  382 3.040 2.644  3.436 1.000 1.00000 3.040 1.000      5.322  23.000
  383 3.120 2.716  3.524 1.000 1.00000 3.120 1.000     13.536  23.000
  384 3.110 2.707  3.513 1.000 1.00000 3.110 1.000     18.006  23.000
  385 3.100 2.698  3.502 1.000 1.00000 3.100 1.000     11.172  23.000
  386 3.090 2.689  3.491 1.000 1.00000 3.090 1.000     33.906  23.000
  387 3.090 2.689  3.491 1.000 1.00000 3.090 1.000      6.987  23.000
  388 3.110 2.707  3.513 1.000 1.00000 3.110 1.000     17.620  23.000
  389 3.080 2.680  3.480 1.000 1.00000 3.080 1.000      5.461  23.000
  390 3.060 2.662  3.458 1.000 1.00000 3.060 1.000      7.941  23.000
  391 3.110 2.707  3.513 1.000 1.00000 3.110 1.000     22.012  23.000
  392 3.070 2.671  3.469 1.000 1.00000 3.070 1.000      4.186  23.000
  393 3.100 2.698  3.502 1.000 1.00000 3.100 1.000     19.159  23.000
  394 3.080 2.680  3.480 1.000 1.00000 3.080 1.000     19.780  23.000
  395 3.070 2.671  3.469 1.000 1.00000 3.070 1.000      2.653  23.000
  396 3.090 2.689  3.491 1.000 1.00000 3.090 1.000     32.636  23.000
  397 3.080 2.680  3.480 1.000 1.00000 3.080 1.000      4.808  23.000
  398 3.090 2.689  3.491 1.000 1.00000 3.090 1.000      4.823  23.000
  399 3.060 2.662  3.458 1.000 1.00000 3.060 1.000     12.731  23.000
  400 3.070 2.671  3.469 1.000 1.00000 3.070 1.000     23.816  23.000
  401 3.090 2.689  3.491 1.000 1.00000 3.090 1.000      5.392  23.000
  402 3.100 2.698  3.502 1.000 1.00000 3.100 1.000     15.933  23.000
  403 3.080 2.680  3.480 1.000 1.00000 3.080 1.000      9.673  23.000
  404 3.060 2.662  3.458 1.000 1.00000 3.060 1.000      1.534  23.000
  405 3.120 2.716  3.524 1.000 1.00000 3.120 1.000      6.196  23.000
  406 3.130 2.725  3.535 1.000 1.00000 3.130 1.000     18.649  23.000
  407 3.090 2.689  3.491 1.000 1.00000 3.090 1.000      3.994  23.000
  408 3.040 2.644  3.436 1.000 1.00000 3.040 1.000      0.613  23.000
  409 3.110 2.707  3.513 1.000 1.00000 3.110 1.000      9.228  23.000
  410 3.110 2.707  3.513 1.000 1.00000 3.110 1.000     14.720  23.000
  411 3.080 2.680  3.480 1.000 1.00000 3.080 1.000      4.533  23.000
  412 3.070 2.671  3.469 1.000 1.00000 3.070 1.000     12.813  23.000
  413 3.060 2.662  3.458 1.000 1.00000 3.060 1.000      1.843  23.000
  414 3.070 2.671  3.469 1.000 1.00000 3.070 1.000      8.307  23.000
  415 3.070 2.671  3.469 1.000 1.00000 3.070 1.000      3.300  23.000
  416 3.080 2.680  3.480 1.000 1.00000 3.080 1.000      3.819  23.000
  417 3.080 2.680  3.480 1.000 1.00000 3.080 1.000      2.337  23.000
  418 3.060 2.662  3.458 1.000 1.00000 3.060 1.000      1.810  23.000
  419 3.110 2.707  3.513 1.000 1.00000 3.110 1.000     13.702  23.000
  420 3.080 2.680  3.480 1.000 1.00000 3.080 1.000     12.841  23.000
  421 3.080 2.680  3.480 1.000 1.00000 3.080 1.000      2.411  23.000
  422 3.100 2.698  3.502 1.000 1.00000 3.100 1.000      7.999  23.000
  423 3.120 2.716  3.524 1.000 1.00000 3.120 1.000      8.188  23.000
  424 3.060 2.662  3.458 1.000 1.00000 3.060 1.000      3.334  23.000
  425 3.080 2.680  3.480 1.000 1.00000 3.080 1.000     15.136  23.000
  426 3.070 2.671  3.469 1.000 1.00000 3.070 1.000     16.227  23.000
  427 3.080 2.680  3.480 1.000 1.00000 3.080 1.000     47.800  23.000
  428 3.110 2.707  3.513 1.000 1.00000 3.110 1.000     16.987  23.000
  429 3.110 2.707  3.513 1.000 1.00000 3.110 1.000      7.126  23.000
  430 3.070 2.671  3.469 1.000 1.00000 3.070 1.000     17.716  23.000
  431 3.060 2.662  3.458 1.000 1.00000 3.060 1.000      5.662  23.000
  432 3.080 2.680  3.480 1.000 1.00000 3.080 1.000      2.768  23.000
  433 3.080 2.680  3.480 1.000 1.00000 3.080 1.000      3.938  23.000
  434 3.080 2.680  3.480 1.000 1.00000 3.080 1.000      5.390  23.000
  435 3.100 2.698  3.502 1.000 1.00000 3.100 1.000     25.050  23.000
  436 3.080 2.680  3.480 1.000 1.00000 3.080 1.000      8.038  23.000
  437 3.100 2.698  3.502 1.000 1.00000 3.100 1.000      5.865  23.000
  438 3.080 2.680  3.480 1.000 1.00000 3.080 1.000     11.792  23.000
  439 3.100 2.698  3.502 1.000 1.00000 3.100 1.000      7.206  23.000
  440 3.070 2.671  3.469 1.000 1.00000 3.070 1.000      1.895  23.000
  441 3.060 2.662  3.458 1.000 1.00000 3.060 1.000      3.950  23.000
  442 3.070 2.671  3.469 1.000 1.00000 3.070 1.000     13.966  23.000
  443 3.070 2.671  3.469 1.000 1.00000 3.070 1.000      2.179  23.000
  444 3.110 2.707  3.513 1.000 1.00000 3.110 1.000      8.913  23.000
  445 3.070 2.671  3.469 1.000 1.00000 3.070 1.000      6.214  23.000
  446 3.090 2.689  3.491 1.000 1.00000 3.090 1.000     15.128  23.000
  447 3.080 2.680  3.480 1.000 1.00000 3.080 1.000      2.678  23.000
  448 3.060 2.662  3.458 1.000 1.00000 3.060 1.000      7.649  23.000
  449 3.070 2.671  3.469 1.000 1.00000 3.070 1.000      3.692  23.000
  450 3.060 2.662  3.458 1.000 1.00000 3.060 1.000      2.069  23.000
  451 3.120 2.716  3.524 1.000 1.00000 3.120 1.000      7.227  23.000
  452 3.050 2.653  3.447 1.000 1.00000 3.050 1.000      2.902  23.000
  453 3.090 2.689  3.491 1.000 1.00000 3.090 1.000     12.207  23.000
  454 3.100 2.698  3.502 1.000 1.00000 3.100 1.000      8.434  23.000
  455 3.120 2.716  3.524 1.000 1.00000 3.120 1.000      9.239  23.000
  456 3.100 2.698  3.502 1.000 1.00000 3.100 1.000     13.321  23.000
  457 3.110 2.707  3.513 1.000 1.00000 3.110 1.000      8.842  23.000
  458 3.100 2.698  3.502 1.000 1.00000 3.100 1.000      8.135  23.000
  459 3.090 2.689  3.491 1.000 1.00000 3.090 1.000      5.444  23.000
  460 3.090 2.689  3.491 1.000 1.00000 3.090 1.000     35.155  23.000
  461 3.070 2.671  3.469 1.000 1.00000 3.070 1.000     25.322  23.000
  462 3.120 2.716  3.524 1.000 1.00000 3.120 1.000     17.599  23.000
  463 3.090 2.689  3.491 1.000 1.00000 3.090 1.000      6.844  23.000
  464 3.110 2.707  3.513 1.000 1.00000 3.110 1.000     20.352  23.000
  465 3.100 2.698  3.502 1.000 1.00000 3.100 1.000      5.500  23.000
  466 3.070 2.671  3.469 1.000 1.00000 3.070 1.000      2.934  23.000
  467 3.090 2.689  3.491 1.000 1.00000 3.090 1.000      9.382  23.000
  468 3.100 2.698  3.502 1.000 1.00000 3.100 1.000      7.222  23.000
  469 3.100 2.698  3.502 1.000 1.00000 3.100 1.000     19.673  23.000
  470 3.050 2.653  3.447 1.000 1.00000 3.050 1.000      1.683  23.000
  471 3.100 2.698  3.502 1.000 1.00000 3.100 1.000     26.964  23.000
  472 3.090 2.689  3.491 1.000 1.00000 3.090 1.000      9.719  23.000
  473 3.080 2.680  3.480 1.000 1.00000 3.080 1.000      4.183  23.000
  474 3.100 2.698  3.502 1.000 1.00000 3.100 1.000     10.068  23.000
  475 3.090 2.689  3.491 1.000 1.00000 3.090 1.000     27.125  23.000
  476 3.070 2.671  3.469 1.000 1.00000 3.070 1.000      3.867  23.000
  477 3.090 2.689  3.491 1.000 1.00000 3.090 1.000      3.536  23.000
  478 3.100 2.698  3.502 1.000 1.00000 3.100 1.000     21.520  23.000
  479 3.110 2.707  3.513 1.000 1.00000 3.110 1.000     25.046  23.000
  480 3.070 2.671  3.469 1.000 1.00000 3.070 1.000      4.795  23.000
  481 3.070 2.671  3.469 1.000 1.00000 3.070 1.000      1.574  23.000
  482 3.090 2.689  3.491 1.000 1.00000 3.090 1.000      5.476  23.000
  483 3.100 2.698  3.502 1.000 1.00000 3.100 1.000      7.163  23.000
  484 3.080 2.680  3.480 1.000 1.00000 3.080 1.000      3.703  23.000
  485 3.110 2.707  3.513 1.000 1.00000 3.110 1.000     27.207  23.000
  486 3.060 2.662  3.458 1.000 1.00000 3.060 1.000     10.607  23.000
  487 3.130 2.725  3.535 1.000 1.00000 3.130 1.000      9.560  23.000
  488 3.080 2.680  3.480 1.000 1.00000 3.080 1.000      2.658  23.000
  489 3.100 2.698  3.502 1.000 1.00000 3.100 1.000     12.170  23.000
  490 3.100 2.698  3.502 1.000 1.00000 3.100 1.000      5.074  23.000
  491 3.080 2.680  3.480 1.000 1.00000 3.080 1.000     13.860  23.000
  492 3.080 2.680  3.480 1.000 1.00000 3.080 1.000     29.086  23.000
  493 3.080 2.680  3.480 1.000 1.00000 3.080 1.000     13.728  23.000
  494 3.090 2.689  3.491 1.000 1.00000 3.090 1.000      6.369  23.000
  495 3.060 2.662  3.458 1.000 1.00000 3.060 1.000      6.855  23.000
  496 3.100 2.698  3.502 1.000 1.00000 3.100 1.000      7.205  23.000
  497 3.090 2.689  3.491 1.000 1.00000 3.090 1.000      4.468  23.000
  498 3.100 2.698  3.502 1.000 1.00000 3.100 1.000     10.255  23.000
  499 3.090 2.689  3.491 1.000 1.00000 3.090 1.000      8.129  23.000
  500 3.110 2.707  3.513 1.000 1.00000 3.110 1.000     20.482  23.000
  501 3.110 2.707  3.513 1.000 1.00000 3.110 1.000      6.488  23.000
  502 3.070 2.671  3.469 1.000 1.00000 3.070 1.000      5.213  23.000
  503 3.100 2.698  3.502 1.000 1.00000 3.100 1.000     44.789  23.000
  504 3.080 2.680  3.480 1.000 1.00000 3.080 1.000      4.164  23.000
  505 3.060 2.662  3.458 1.000 1.00000 3.060 1.000      2.772  23.000
  506 3.060 2.662  3.458 1.000 1.00000 3.060 1.000     14.837  23.000
  507 3.080 2.680  3.480 1.000 1.00000 3.080 1.000      2.389  23.000
  508 3.090 2.689  3.491 1.000 1.00000 3.090 1.000      3.978  23.000
  509 3.080 2.680  3.480 1.000 1.00000 3.080 1.000      8.656  23.000
  510 3.100 2.698  3.502 1.000 1.00000 3.100 1.000      4.087  23.000
  511 3.050 2.653  3.447 1.000 1.00000 3.050 1.000      2.001  23.000
  512 3.080 2.680  3.480 1.000 1.00000 3.080 1.000      5.198  23.000
  513 3.090 2.689  3.491 1.000 1.00000 3.090 1.000     26.150  23.000
  514 3.120 2.716  3.524 1.000 1.00000 3.120 1.000      9.515  23.000
  515 3.080 2.680  3.480 1.000 1.00000 3.080 1.000      3.652  23.000
  516 3.090 2.689  3.491 1.000 1.00000 3.090 1.000      4.731  23.000
  517 3.090 2.689  3.491 1.000 1.00000 3.090 1.000     17.956  23.000
  518 3.080 2.680  3.480 1.000 1.00000 3.080 1.000      5.267  23.000
  519 3.060 2.662  3.458 1.000 1.00000 3.060 1.000      1.225  23.000
  520 3.070 2.671  3.469 1.000 1.00000 3.070 1.000      8.906  23.000
  521 3.090 2.689  3.491 1.000 1.00000 3.090 1.000     14.849  23.000
  522 3.130 2.725  3.535 1.000 1.00000 3.130 1.000     41.848  23.000
  523 3.090 2.689  3.491 1.000 1.00000 3.090 1.000      8.551  23.000
  524 3.100 2.698  3.502 1.000 1.00000 3.100 1.000      4.076  23.000
  525 3.070 2.671  3.469 1.000 1.00000 3.070 1.000      1.969  23.000
  526 3.070 2.671  3.469 1.000 1.00000 3.070 1.000      8.234  23.000
  527 3.090 2.689  3.491 1.000 1.00000 3.090 1.000      3.451  23.000
  528 3.130 2.725  3.535 1.000 1.00000 3.130 1.000     16.439  23.000
  529 3.090 2.689  3.491 1.000 1.00000 3.090 1.000      4.563  23.000
  530 3.090 2.689  3.491 1.000 1.00000 3.090 1.000      3.576  23.000
  531 3.120 2.716  3.524 1.000 1.00000 3.120 1.000     10.043  23.000
  532 3.090 2.689  3.491 1.000 1.00000 3.090 1.000      4.357  23.000
  533 3.080 2.680  3.480 1.000 1.00000 3.080 1.000      9.878  23.000
  534 3.090 2.689  3.491 1.000 1.00000 3.090 1.000      6.926  23.000
  535 3.110 2.707  3.513 1.000 1.00000 3.110 1.000     11.635  23.000
  536 3.120 2.716  3.524 1.000 1.00000 3.120 1.000      6.909  23.000
  537 3.090 2.689  3.491 1.000 1.00000 3.090 1.000     12.977  23.000
  538 3.080 2.680  3.480 1.000 1.00000 3.080 1.000     14.145  23.000
  539 3.080 2.680  3.480 1.000 1.00000 3.080 1.000      3.207  23.000
  540 3.090 2.689  3.491 1.000 1.00000 3.090 1.000      6.823  23.000
  541 3.090 2.689  3.491 1.000 1.00000 3.090 1.000      4.624  23.000
  542 3.090 2.689  3.491 1.000 1.00000 3.090 1.000      4.017  23.000
  543 3.100 2.698  3.502 1.000 1.00000 3.100 1.000      8.604  23.000
  544 3.090 2.689  3.491 1.000 1.00000 3.090 1.000     16.320  23.000
  545 3.060 2.662  3.458 1.000 1.00000 3.060 1.000     24.893  23.000
  546 3.090 2.689  3.491 1.000 1.00000 3.090 1.000      3.976  23.000
  547 3.100 2.698  3.502 1.000 1.00000 3.100 1.000     10.603  23.000
  548 3.090 2.689  3.491 1.000 1.00000 3.090 1.000      6.729  23.000
  549 3.070 2.671  3.469 1.000 1.00000 3.070 1.000      2.208  23.000
  550 3.090 2.689  3.491 1.000 1.00000 3.090 1.000     23.967  23.000
  551 3.130 2.725  3.535 1.000 1.00000 3.130 1.000      7.517  23.000
  552 3.090 2.689  3.491 1.000 1.00000 3.090 1.000     13.707  23.000
  553 3.110 2.707  3.513 1.000 1.00000 3.110 1.000      9.332  23.000
  554 3.150 2.743  3.557 1.000 1.00000 3.150 1.000     10.690  23.000
  555 3.070 2.671  3.469 1.000 1.00000 3.070 1.000      1.731  23.000
  556 3.090 2.689  3.491 1.000 1.00000 3.090 1.000     12.384  23.000
  557 3.140 2.734  3.546 1.000 1.00000 3.140 1.000     18.383  23.000
  558 3.090 2.689  3.491 1.000 1.00000 3.090 1.000      6.807  23.000
  559 3.070 2.671  3.469 1.000 1.00000 3.070 1.000      5.139  23.000
  560 3.120 2.716  3.524 1.000 1.00000 3.120 1.000      7.099  23.000
  561 3.110 2.707  3.513 1.000 1.00000 3.110 1.000      9.390  23.000
  562 3.120 2.716  3.524 1.000 1.00000 3.120 1.000     10.603  23.000
  563 3.090 2.689  3.491 1.000 1.00000 3.090 1.000     12.552  23.000
  564 3.060 2.662  3.458 1.000 1.00000 3.060 1.000      6.453  23.000
  565 3.060 2.662  3.458 1.000 1.00000 3.060 1.000      2.569  23.000
  566 3.070 2.671  3.469 1.000 1.00000 3.070 1.000      9.555  23.000
  567 3.070 2.671  3.469 1.000 1.00000 3.070 1.000      4.976  23.000
  568 3.110 2.707  3.513 1.000 1.00000 3.110 1.000     36.806  23.000
  569 3.060 2.662  3.458 1.000 1.00000 3.060 1.000      1.174  23.000
  570 3.110 2.707  3.513 1.000 1.00000 3.110 1.000     10.947  23.000
  571 3.080 2.680  3.480 1.000 1.00000 3.080 1.000     11.737  23.000
  572 3.110 2.707  3.513 1.000 1.00000 3.110 1.000      9.957  23.000
  573 3.080 2.680  3.480 1.000 1.00000 3.080 1.000      3.354  23.000
  574 3.120 2.716  3.524 1.000 1.00000 3.120 1.000     11.463  23.000
  575 3.100 2.698  3.502 1.000 1.00000 3.100 1.000      6.567  23.000
  576 3.080 2.680  3.480 1.000 1.00000 3.080 1.000      5.268  23.000
  577 3.090 2.689  3.491 1.000 1.00000 3.090 1.000      2.902  23.000
  578 3.110 2.707  3.513 1.000 1.00000 3.110 1.000     10.643  23.000
  579 3.080 2.680  3.480 1.000 1.00000 3.080 1.000      6.418  23.000
  580 3.090 2.689  3.491 1.000 1.00000 3.090 1.000      5.380  23.000
  581 3.060 2.662  3.458 1.000 1.00000 3.060 1.000      3.003  23.000
  582 3.070 2.671  3.469 1.000 1.00000 3.070 1.000      5.651  23.000
  583 3.120 2.716  3.524 1.000 1.00000 3.120 1.000     12.033  23.000
  584 3.090 2.689  3.491 1.000 1.00000 3.090 1.000     12.932  23.000
  585 3.120 2.716  3.524 1.000 1.00000 3.120 1.000      7.645  23.000
  586 3.090 2.689  3.491 1.000 1.00000 3.090 1.000      3.859  23.000
  587 3.090 2.689  3.491 1.000 1.00000 3.090 1.000     13.247  23.000
  588 3.090 2.689  3.491 1.000 1.00000 3.090 1.000      7.328  23.000
  589 3.120 2.716  3.524 1.000 1.00000 3.120 1.000     12.417  23.000
  590 3.140 2.734  3.546 1.000 1.00000 3.140 1.000     12.144  23.000
  591 3.110 2.707  3.513 1.000 1.00000 3.110 1.000     16.549  23.000
  592 3.090 2.689  3.491 1.000 1.00000 3.090 1.000     11.349  23.000
  593 3.070 2.671  3.469 1.000 1.00000 3.070 1.000      5.846  23.000
  594 3.060 2.662  3.458 1.000 1.00000 3.060 1.000      6.914  23.000
  595 3.080 2.680  3.480 1.000 1.00000 3.080 1.000     41.078  23.000
  596 3.100 2.698  3.502 1.000 1.00000 3.100 1.000      6.844  23.000
  597 3.050 2.653  3.447 1.000 1.00000 3.050 1.000      4.504  23.000
  598 3.060 2.662  3.458 1.000 1.00000 3.060 1.000      3.300  23.000
  599 3.110 2.707  3.513 1.000 1.00000 3.110 1.000      9.567  23.000
  600 3.130 2.725  3.535 1.000 1.00000 3.130 1.000      8.573  23.000
  601 3.100 2.698  3.502 1.000 1.00000 3.100 1.000      6.608  23.000
  602 3.140 2.734  3.546 1.000 1.00000 3.140 1.000      9.336  23.000
  603 3.130 2.725  3.535 1.000 1.00000 3.130 1.000     13.239  23.000
  604 3.100 2.698  3.502 1.000 1.00000 3.100 1.000      6.787  23.000
  605 3.080 2.680  3.480 1.000 1.00000 3.080 1.000      2.605  23.000
  606 3.060 2.662  3.458 1.000 1.00000 3.060 1.000      5.034  23.000
  607 3.120 2.716  3.524 1.000 1.00000 3.120 1.000     11.557  23.000
  608 3.100 2.698  3.502 1.000 1.00000 3.100 1.000      8.847  23.000
  609 3.120 2.716  3.524 1.000 1.00000 3.120 1.000     32.007  23.000
  610 3.050 2.653  3.447 1.000 1.00000 3.050 1.000      5.818  23.000
  611 3.120 2.716  3.524 1.000 1.00000 3.120 1.000     10.230  23.000
  612 3.090 2.689  3.491 1.000 1.00000 3.090 1.000     29.863  23.000
  613 3.070 2.671  3.469 1.000 1.00000 3.070 1.000      2.763  23.000
  614 3.050 2.653  3.447 1.000 1.00000 3.050 1.000      1.788  23.000
  615 3.090 2.689  3.491 1.000 1.00000 3.090 1.000     10.718  23.000
  616 3.120 2.716  3.524 1.000 1.00000 3.120 1.000     11.020  23.000
  617 3.100 2.698  3.502 1.000 1.00000 3.100 1.000      7.176  23.000
  618 3.110 2.707  3.513 1.000 1.00000 3.110 1.000      7.095  23.000
  619 3.070 2.671  3.469 1.000 1.00000 3.070 1.000     10.212  23.000
  620 3.130 2.725  3.535 1.000 1.00000 3.130 1.000     12.063  23.000
  621 3.070 2.671  3.469 1.000 1.00000 3.070 1.000     16.419  23.000
  622 3.120 2.716  3.524 1.000 1.00000 3.120 1.000     34.614  23.000
  623 3.080 2.680  3.480 1.000 1.00000 3.080 1.000      2.551  23.000
  624 3.100 2.698  3.502 1.000 1.00000 3.100 1.000      3.895  23.000
  625 3.080 2.680  3.480 1.000 1.00000 3.080 1.000      7.791  23.000
  626 3.060 2.662  3.458 1.000 1.00000 3.060 1.000      9.194  23.000
  627 3.130 2.725  3.535 1.000 1.00000 3.130 1.000      9.252  23.000
  628 3.080 2.680  3.480 1.000 1.00000 3.080 1.000      7.303  23.000
  629 3.100 2.698  3.502 1.000 1.00000 3.100 1.000      7.231  23.000
  630 3.110 2.707  3.513 1.000 1.00000 3.110 1.000      6.314  23.000
  631 3.080 2.680  3.480 1.000 1.00000 3.080 1.000      3.051  23.000
  632 3.070 2.671  3.469 1.000 1.00000 3.070 1.000      8.865  23.000
  633 3.090 2.689  3.491 1.000 1.00000 3.090 1.000      6.953  23.000
  634 3.090 2.689  3.491 1.000 1.00000 3.090 1.000      5.909  23.000
  635 3.100 2.698  3.502 1.000 1.00000 3.100 1.000     17.934  23.000
  636 3.130 2.725  3.535 1.000 1.00000 3.130 1.000     12.447  23.000
  637 3.090 2.689  3.491 1.000 1.00000 3.090 1.000      4.243  23.000
  638 3.090 2.689  3.491 1.000 1.00000 3.090 1.000      3.913  23.000
  639 3.090 2.689  3.491 1.000 1.00000 3.090 1.000      5.083  23.000
  640 3.080 2.680  3.480 1.000 1.00000 3.080 1.000      3.146  23.000
  641 3.070 2.671  3.469 1.000 1.00000 3.070 1.000      2.671  23.000
  642 3.070 2.671  3.469 1.000 1.00000 3.070 1.000      1.641  23.000
  643 3.080 2.680  3.480 1.000 1.00000 3.080 1.000     11.144  23.000
  644 3.130 2.725  3.535 1.000 1.00000 3.130 1.000     10.326  23.000
  645 3.090 2.689  3.491 1.000 1.00000 3.090 1.000      8.165  23.000
  646 3.110 2.707  3.513 1.000 1.00000 3.110 1.000      7.505  23.000
  647 3.100 2.698  3.502 1.000 1.00000 3.100 1.000     32.106  23.000
  648 3.080 2.680  3.480 1.000 1.00000 3.080 1.000     12.728  23.000
  649 3.080 2.680  3.480 1.000 1.00000 3.080 1.000      3.826  23.000
  650 3.080 2.680  3.480 1.000 1.00000 3.080 1.000      5.500  23.000
  651 3.090 2.689  3.491 1.000 1.00000 3.090 1.000      9.382  23.000
  652 3.080 2.680  3.480 1.000 1.00000 3.080 1.000      5.378  23.000
  653 3.080 2.680  3.480 1.000 1.00000 3.080 1.000      2.453  23.000
  654 3.090 2.689  3.491 1.000 1.00000 3.090 1.000     15.294  23.000
  655 3.100 2.698  3.502 1.000 1.00000 3.100 1.000      9.099  23.000
  656 3.060 2.662  3.458 1.000 1.00000 3.060 1.000      2.625  23.000
  657 3.080 2.680  3.480 1.000 1.00000 3.080 1.000      3.587  23.000
  658 3.080 2.680  3.480 1.000 1.00000 3.080 1.000      4.857  23.000
  659 3.100 2.698  3.502 1.000 1.00000 3.100 1.000      6.932  23.000
  660 3.110 2.707  3.513 1.000 1.00000 3.110 1.000      8.369  23.000
  661 3.060 2.662  3.458 1.000 1.00000 3.060 1.000      4.385  23.000
  662 3.080 2.680  3.480 1.000 1.00000 3.080 1.000      3.587  23.000
  663 3.080 2.680  3.480 1.000 1.00000 3.080 1.000      3.258  23.000
  664 3.120 2.716  3.524 1.000 1.00000 3.120 1.000     10.052  23.000
  665 3.080 2.680  3.480 1.000 1.00000 3.080 1.000     17.245  23.000
  666 3.060 2.662  3.458 1.000 1.00000 3.060 1.000      7.209  23.000
  667 3.090 2.689  3.491 1.000 1.00000 3.090 1.000      3.224  23.000
  668 3.080 2.680  3.480 1.000 1.00000 3.080 1.000      4.178  23.000
  669 3.050 2.653  3.447 1.000 1.00000 3.050 1.000      9.384  23.000
  670 3.080 2.680  3.480 1.000 1.00000 3.080 1.000      5.688  23.000
  671 3.080 2.680  3.480 1.000 1.00000 3.080 1.000     22.038  23.000
  672 3.110 2.707  3.513 1.000 1.00000 3.110 1.000     40.582  23.000
  673 3.070 2.671  3.469 1.000 1.00000 3.070 1.000      3.657  23.000
  674 3.080 2.680  3.480 1.000 1.00000 3.080 1.000      3.852  23.000
  675 3.060 2.662  3.458 1.000 1.00000 3.060 1.000      1.725  23.000
  676 3.070 2.671  3.469 1.000 1.00000 3.070 1.000      5.681  23.000
  677 3.070 2.671  3.469 1.000 1.00000 3.070 1.000      7.194  23.000
  678 3.070 2.671  3.469 1.000 1.00000 3.070 1.000      5.022  23.000
  679 3.120 2.716  3.524 1.000 1.00000 3.120 1.000      6.390  23.000
  680 3.090 2.689  3.491 1.000 1.00000 3.090 1.000     10.385  23.000
  681 3.080 2.680  3.480 1.000 1.00000 3.080 1.000      6.150  23.000
  682 3.090 2.689  3.491 1.000 1.00000 3.090 1.000      5.606  23.000
  683 3.120 2.716  3.524 1.000 1.00000 3.120 1.000     10.461  23.000
  684 3.100 2.698  3.502 1.000 1.00000 3.100 1.000      7.240  23.000
  685 3.070 2.671  3.469 1.000 1.00000 3.070 1.000     14.449  23.000
  686 3.080 2.680  3.480 1.000 1.00000 3.080 1.000     18.050  23.000
  687 3.090 2.689  3.491 1.000 1.00000 3.090 1.000      7.395  23.000
  688 3.110 2.707  3.513 1.000 1.00000 3.110 1.000     26.170  23.000
  689 3.100 2.698  3.502 1.000 1.00000 3.100 1.000      5.867  23.000
  690 3.090 2.689  3.491 1.000 1.00000 3.090 1.000     21.607  23.000
  691 3.080 2.680  3.480 1.000 1.00000 3.080 1.000      4.415  23.000
  692 3.130 2.725  3.535 1.000 1.00000 3.130 1.000      9.039  23.000
  693 3.070 2.671  3.469 1.000 1.00000 3.070 1.000     19.231  23.000
  694 3.120 2.716  3.524 1.000 1.00000 3.120 1.000      6.066  23.000
  695 3.080 2.680  3.480 1.000 1.00000 3.080 1.000      5.895  23.000
  696 3.090 2.689  3.491 1.000 1.00000 3.090 1.000      5.857  23.000
  697 3.110 2.707  3.513 1.000 1.00000 3.110 1.000     10.378  23.000
  698 3.080 2.680  3.480 1.000 1.00000 3.080 1.000      5.455  23.000
  699 3.090 2.689  3.491 1.000 1.00000 3.090 1.000      3.864  23.000
  700 3.070 2.671  3.469 1.000 1.00000 3.070 1.000      2.958  23.000
