## File LOS/SB2_B2004a_2.9z_Mags_400.bpz  Fri Aug 12 23:37:54 2016
##
##Parameters used to run BPZ:
##
##AB_DIR=/home/lidenscheng/bpz-1.99.3//AB/
##ADD_CONTINUOUS_PROB=None
##ADD_SPEC_PROB=None
##CHECK=LOS/SB2_B2004a_2.9z_Mags_400.flux_comparison
##COLOR=no
##COLUMNS=losNoErrors.columns
##CONVOLVE_P=yes
##DELTA_M_0=0.0
##DZ=0.01
##EXCLUDE=none
##FC=None
##FILTER_DIR=/home/lidenscheng/MK_DirectSim/filters/
##GET_Z=yes
##INPUT=LOS/SB2_B2004a_2.9z_Mags_400.txt
##INTERACTIVE=yes
##INTERP=0
##MADAU=no
##MAG=yes
##MEAN_IGM=yes
##MERGE_PEAKS=no
##MIN_MAGERR=0.001
##MIN_RMS=0.05
##NEW_AB=no
##NMAX=None
##NTYPES=None
##N_PEAKS=1
##ODDS=0.95
##ONLY_TYPE=no
##OUTPUT=LOS/SB2_B2004a_2.9z_Mags_400.bpz
##PHOTO_ERRORS=no
##PLOTS=no
##PRIOR=none
##PROBS=no
##PROBS2=no
##PROBS_LITE=LOS/SB2_B2004a_2.9z_Mags_400.probs
##P_MIN=0.01
##SED_DIR=/home/lidenscheng/MK_DirectSim/SEDs/
##SPECTRA=SB2.list
##VERBOSE=yes
##ZC=None
##ZMAX=10.0
##ZMIN=0.01
##ZP_OFFSETS=0.0
##Z_THR=0
##
##Column information
##
# 1 ID
# 2 Z_B
# 3 Z_B_MIN
# 4 Z_B_MAX
# 5 T_B
# 6 ODDS    
# 7 Z_ML
# 8 T_ML
# 9 CHI-SQUARED
# 10 M_0
##
    1 3.000 2.608  3.392 1.000 1.00000 3.000 1.000     36.205  23.000
    2 2.970 2.581  3.359 1.000 1.00000 2.970 1.000     24.193  23.000
    3 3.040 2.644  3.436 1.000 1.00000 3.040 1.000     23.886  23.000
    4 2.950 2.563  3.337 1.000 1.00000 2.950 1.000     12.434  23.000
    5 2.990 2.599  3.381 1.000 1.00000 2.990 1.000     17.881  23.000
    6 2.990 2.599  3.381 1.000 1.00000 2.990 1.000     13.585  23.000
    7 3.000 2.608  3.392 1.000 1.00000 3.000 1.000     19.441  23.000
    8 2.950 2.563  3.337 1.000 1.00000 2.950 1.000     10.987  23.000
    9 2.980 2.590  3.370 1.000 1.00000 2.980 1.000     22.852  23.000
   10 3.020 2.626  3.414 1.000 1.00000 3.020 1.000     46.860  23.000
   11 3.010 2.617  3.403 1.000 1.00000 3.010 1.000      8.669  23.000
   12 2.960 2.572  3.348 1.000 1.00000 2.960 1.000     24.454  23.000
   13 2.940 2.554  3.326 1.000 1.00000 2.940 1.000     10.603  23.000
   14 2.980 2.590  3.370 1.000 1.00000 2.980 1.000     31.649  23.000
   15 3.010 2.617  3.403 1.000 1.00000 3.010 1.000     11.564  23.000
   16 3.010 2.617  3.403 1.000 1.00000 3.010 1.000     35.088  23.000
   17 3.030 2.635  3.425 1.000 1.00000 3.030 1.000     48.679  23.000
   18 2.950 2.563  3.337 1.000 1.00000 2.950 1.000      3.450  23.000
   19 2.960 2.572  3.348 1.000 1.00000 2.960 1.000      3.516  23.000
   20 2.970 2.581  3.359 1.000 1.00000 2.970 1.000     13.944  23.000
   21 3.010 2.617  3.403 1.000 1.00000 3.010 1.000     19.387  23.000
   22 2.990 2.599  3.381 1.000 1.00000 2.990 1.000      7.328  23.000
   23 3.000 2.608  3.392 1.000 1.00000 3.000 1.000     14.418  23.000
   24 3.070 2.671  3.469 1.000 1.00000 3.070 1.000     33.645  23.000
   25 3.010 2.617  3.403 1.000 1.00000 3.010 1.000     10.040  23.000
   26 2.980 2.590  3.370 1.000 1.00000 2.980 1.000     10.971  23.000
   27 3.040 2.644  3.436 1.000 1.00000 3.040 1.000     29.164  23.000
   28 3.000 2.608  3.392 1.000 1.00000 3.000 1.000     16.387  23.000
   29 2.950 2.563  3.337 1.000 1.00000 2.950 1.000      2.504  23.000
   30 2.970 2.581  3.359 1.000 1.00000 2.970 1.000      9.464  23.000
   31 2.980 2.590  3.370 1.000 1.00000 2.980 1.000     21.532  23.000
   32 2.950 2.563  3.337 1.000 1.00000 2.950 1.000      5.331  23.000
   33 3.020 2.626  3.414 1.000 1.00000 3.020 1.000     13.620  23.000
   34 2.960 2.572  3.348 1.000 1.00000 2.960 1.000     15.286  23.000
   35 3.000 2.608  3.392 1.000 1.00000 3.000 1.000      5.815  23.000
   36 2.980 2.590  3.370 1.000 1.00000 2.980 1.000     16.220  23.000
   37 2.990 2.599  3.381 1.000 1.00000 2.990 1.000     22.129  23.000
   38 3.030 2.635  3.425 1.000 1.00000 3.030 1.000     26.356  23.000
   39 3.000 2.608  3.392 1.000 1.00000 3.000 1.000     20.576  23.000
   40 2.970 2.581  3.359 1.000 1.00000 2.970 1.000     15.384  23.000
   41 2.960 2.572  3.348 1.000 1.00000 2.960 1.000     16.953  23.000
   42 3.000 2.608  3.392 1.000 1.00000 3.000 1.000     14.673  23.000
   43 3.000 2.608  3.392 1.000 1.00000 3.000 1.000     42.076  23.000
   44 3.000 2.608  3.392 1.000 1.00000 3.000 1.000     19.525  23.000
   45 2.970 2.581  3.359 1.000 1.00000 2.970 1.000      4.640  23.000
   46 3.050 2.653  3.447 1.000 1.00000 3.050 1.000     48.258  23.000
   47 2.990 2.599  3.381 1.000 1.00000 2.990 1.000      6.263  23.000
   48 3.000 2.608  3.392 1.000 1.00000 3.000 1.000     11.665  23.000
   49 3.040 2.644  3.436 1.000 1.00000 3.040 1.000     55.268  23.000
   50 2.960 2.572  3.348 1.000 1.00000 2.960 1.000      7.304  23.000
   51 2.970 2.581  3.359 1.000 1.00000 2.970 1.000     14.233  23.000
   52 2.960 2.572  3.348 1.000 1.00000 2.960 1.000     10.572  23.000
   53 3.010 2.617  3.403 1.000 1.00000 3.010 1.000     13.777  23.000
   54 3.000 2.608  3.392 1.000 1.00000 3.000 1.000      8.229  23.000
   55 2.960 2.572  3.348 1.000 1.00000 2.960 1.000     12.987  23.000
   56 3.000 2.608  3.392 1.000 1.00000 3.000 1.000     25.276  23.000
   57 3.000 2.608  3.392 1.000 1.00000 3.000 1.000     10.945  23.000
   58 2.960 2.572  3.348 1.000 1.00000 2.960 1.000     16.184  23.000
   59 3.060 2.662  3.458 1.000 1.00000 3.060 1.000     38.012  23.000
   60 2.970 2.581  3.359 1.000 1.00000 2.970 1.000     32.851  23.000
   61 2.970 2.581  3.359 1.000 1.00000 2.970 1.000     21.985  23.000
   62 2.950 2.563  3.337 1.000 1.00000 2.950 1.000      3.099  23.000
   63 2.960 2.572  3.348 1.000 1.00000 2.960 1.000     17.822  23.000
   64 3.020 2.626  3.414 1.000 1.00000 3.020 1.000     15.046  23.000
   65 2.960 2.572  3.348 1.000 1.00000 2.960 1.000     27.977  23.000
   66 3.000 2.608  3.392 1.000 1.00000 3.000 1.000     15.311  23.000
   67 2.980 2.590  3.370 1.000 1.00000 2.980 1.000     42.439  23.000
   68 2.950 2.563  3.337 1.000 1.00000 2.950 1.000     27.702  23.000
   69 2.980 2.590  3.370 1.000 1.00000 2.980 1.000     11.360  23.000
   70 2.980 2.590  3.370 1.000 1.00000 2.980 1.000     18.416  23.000
   71 2.970 2.581  3.359 1.000 1.00000 2.970 1.000     18.957  23.000
   72 2.960 2.572  3.348 1.000 1.00000 2.960 1.000     24.270  23.000
   73 2.950 2.563  3.337 1.000 1.00000 2.950 1.000     16.738  23.000
   74 3.000 2.608  3.392 1.000 1.00000 3.000 1.000     23.162  23.000
   75 2.980 2.590  3.370 1.000 1.00000 2.980 1.000     31.480  23.000
   76 3.030 2.635  3.425 1.000 1.00000 3.030 1.000     19.366  23.000
   77 2.980 2.590  3.370 1.000 1.00000 2.980 1.000      4.961  23.000
   78 2.980 2.590  3.370 1.000 1.00000 2.980 1.000      7.775  23.000
   79 3.000 2.608  3.392 1.000 1.00000 3.000 1.000     12.725  23.000
   80 2.980 2.590  3.370 1.000 1.00000 2.980 1.000      5.994  23.000
   81 2.970 2.581  3.359 1.000 1.00000 2.970 1.000     42.998  23.000
   82 3.070 2.671  3.469 1.000 1.00000 3.070 1.000     26.862  23.000
   83 3.000 2.608  3.392 1.000 1.00000 3.000 1.000     12.912  23.000
   84 2.990 2.599  3.381 1.000 1.00000 2.990 1.000      6.865  23.000
   85 2.960 2.572  3.348 1.000 1.00000 2.960 1.000     23.684  23.000
   86 2.990 2.599  3.381 1.000 1.00000 2.990 1.000     11.851  23.000
   87 2.990 2.599  3.381 1.000 1.00000 2.990 1.000     18.955  23.000
   88 3.000 2.608  3.392 1.000 1.00000 3.000 1.000     51.191  23.000
   89 2.970 2.581  3.359 1.000 1.00000 2.970 1.000      3.935  23.000
   90 3.030 2.635  3.425 1.000 1.00000 3.030 1.000     21.710  23.000
   91 3.010 2.617  3.403 1.000 1.00000 3.010 1.000     22.313  23.000
   92 2.950 2.563  3.337 1.000 1.00000 2.950 1.000     15.765  23.000
   93 3.010 2.617  3.403 1.000 1.00000 3.010 1.000     15.051  23.000
   94 2.990 2.599  3.381 1.000 1.00000 2.990 1.000     31.206  23.000
   95 3.000 2.608  3.392 1.000 1.00000 3.000 1.000     15.990  23.000
   96 2.990 2.599  3.381 1.000 1.00000 2.990 1.000     15.904  23.000
   97 2.950 2.563  3.337 1.000 1.00000 2.950 1.000     11.231  23.000
   98 3.010 2.617  3.403 1.000 1.00000 3.010 1.000     17.185  23.000
   99 3.010 2.617  3.403 1.000 1.00000 3.010 1.000     34.212  23.000
  100 3.030 2.635  3.425 1.000 1.00000 3.030 1.000     16.510  23.000
  101 2.990 2.599  3.381 1.000 1.00000 2.990 1.000     12.482  23.000
  102 3.000 2.608  3.392 1.000 1.00000 3.000 1.000     18.077  23.000
  103 2.950 2.563  3.337 1.000 1.00000 2.950 1.000      7.156  23.000
  104 2.960 2.572  3.348 1.000 1.00000 2.960 1.000     13.737  23.000
  105 2.940 2.554  3.326 1.000 1.00000 2.940 1.000      3.294  23.000
  106 2.960 2.572  3.348 1.000 1.00000 2.960 1.000     21.556  23.000
  107 2.980 2.590  3.370 1.000 1.00000 2.980 1.000     21.204  23.000
  108 3.020 2.626  3.414 1.000 1.00000 3.020 1.000     24.129  23.000
  109 2.970 2.581  3.359 1.000 1.00000 2.970 1.000      9.622  23.000
  110 3.010 2.617  3.403 1.000 1.00000 3.010 1.000      7.292  23.000
  111 2.950 2.563  3.337 1.000 1.00000 2.950 1.000      7.128  23.000
  112 2.980 2.590  3.370 1.000 1.00000 2.980 1.000     45.862  23.000
  113 2.980 2.590  3.370 1.000 1.00000 2.980 1.000     13.506  23.000
  114 2.960 2.572  3.348 1.000 1.00000 2.960 1.000     15.242  23.000
  115 2.980 2.590  3.370 1.000 1.00000 2.980 1.000     18.488  23.000
  116 3.030 2.635  3.425 1.000 1.00000 3.030 1.000     10.504  23.000
  117 3.010 2.617  3.403 1.000 1.00000 3.010 1.000     25.705  23.000
  118 3.020 2.626  3.414 1.000 1.00000 3.020 1.000     15.965  23.000
  119 3.010 2.617  3.403 1.000 1.00000 3.010 1.000     12.533  23.000
  120 3.070 2.671  3.469 1.000 1.00000 3.070 1.000     63.320  23.000
  121 3.010 2.617  3.403 1.000 1.00000 3.010 1.000     26.256  23.000
  122 2.980 2.590  3.370 1.000 1.00000 2.980 1.000     40.596  23.000
  123 2.970 2.581  3.359 1.000 1.00000 2.970 1.000     11.645  23.000
  124 3.040 2.644  3.436 1.000 1.00000 3.040 1.000     29.173  23.000
  125 3.050 2.653  3.447 1.000 1.00000 3.050 1.000     32.771  23.000
  126 2.980 2.590  3.370 1.000 1.00000 2.980 1.000     32.482  23.000
  127 3.100 2.698  3.502 1.000 1.00000 3.100 1.000     71.690  23.000
  128 3.000 2.608  3.392 1.000 1.00000 3.000 1.000     26.662  23.000
  129 2.950 2.563  3.337 1.000 1.00000 2.950 1.000      9.408  23.000
  130 2.990 2.599  3.381 1.000 1.00000 2.990 1.000      7.681  23.000
  131 2.960 2.572  3.348 1.000 1.00000 2.960 1.000     31.866  23.000
  132 2.980 2.590  3.370 1.000 1.00000 2.980 1.000     25.056  23.000
  133 2.990 2.599  3.381 1.000 1.00000 2.990 1.000     41.406  23.000
  134 2.960 2.572  3.348 1.000 1.00000 2.960 1.000      8.045  23.000
  135 3.060 2.662  3.458 1.000 1.00000 3.060 1.000     36.088  23.000
  136 2.970 2.581  3.359 1.000 1.00000 2.970 1.000     26.715  23.000
  137 2.950 2.563  3.337 1.000 1.00000 2.950 1.000     10.809  23.000
  138 2.970 2.581  3.359 1.000 1.00000 2.970 1.000     10.799  23.000
  139 2.990 2.599  3.381 1.000 1.00000 2.990 1.000     31.021  23.000
  140 3.000 2.608  3.392 1.000 1.00000 3.000 1.000     25.709  23.000
  141 2.960 2.572  3.348 1.000 1.00000 2.960 1.000     16.376  23.000
  142 3.000 2.608  3.392 1.000 1.00000 3.000 1.000     24.284  23.000
  143 3.000 2.608  3.392 1.000 1.00000 3.000 1.000      7.858  23.000
  144 2.960 2.572  3.348 1.000 1.00000 2.960 1.000     14.624  23.000
  145 3.030 2.635  3.425 1.000 1.00000 3.030 1.000     18.452  23.000
  146 2.980 2.590  3.370 1.000 1.00000 2.980 1.000     16.879  23.000
  147 2.950 2.563  3.337 1.000 1.00000 2.950 1.000      5.436  23.000
  148 3.000 2.608  3.392 1.000 1.00000 3.000 1.000     30.809  23.000
  149 2.990 2.599  3.381 1.000 1.00000 2.990 1.000     11.838  23.000
  150 2.980 2.590  3.370 1.000 1.00000 2.980 1.000      5.427  23.000
  151 2.970 2.581  3.359 1.000 1.00000 2.970 1.000     29.270  23.000
  152 2.990 2.599  3.381 1.000 1.00000 2.990 1.000     15.054  23.000
  153 2.960 2.572  3.348 1.000 1.00000 2.960 1.000      3.232  23.000
  154 2.970 2.581  3.359 1.000 1.00000 2.970 1.000      7.938  23.000
  155 2.960 2.572  3.348 1.000 1.00000 2.960 1.000     36.361  23.000
  156 2.970 2.581  3.359 1.000 1.00000 2.970 1.000     10.048  23.000
  157 2.970 2.581  3.359 1.000 1.00000 2.970 1.000     32.350  23.000
  158 3.000 2.608  3.392 1.000 1.00000 3.000 1.000     43.523  23.000
  159 3.020 2.626  3.414 1.000 1.00000 3.020 1.000     43.233  23.000
  160 3.000 2.608  3.392 1.000 1.00000 3.000 1.000     16.040  23.000
  161 3.010 2.617  3.403 1.000 1.00000 3.010 1.000     10.046  23.000
  162 3.000 2.608  3.392 1.000 1.00000 3.000 1.000     35.257  23.000
  163 3.000 2.608  3.392 1.000 1.00000 3.000 1.000     10.317  23.000
  164 3.040 2.644  3.436 1.000 1.00000 3.040 1.000     32.709  23.000
  165 3.000 2.608  3.392 1.000 1.00000 3.000 1.000     11.618  23.000
  166 2.950 2.563  3.337 1.000 1.00000 2.950 1.000     10.333  23.000
  167 3.010 2.617  3.403 1.000 1.00000 3.010 1.000      7.878  23.000
  168 2.980 2.590  3.370 1.000 1.00000 2.980 1.000     13.231  23.000
  169 2.960 2.572  3.348 1.000 1.00000 2.960 1.000     13.787  23.000
  170 2.980 2.590  3.370 1.000 1.00000 2.980 1.000      9.179  23.000
  171 2.990 2.599  3.381 1.000 1.00000 2.990 1.000     57.353  23.000
  172 2.950 2.563  3.337 1.000 1.00000 2.950 1.000     15.380  23.000
  173 3.010 2.617  3.403 1.000 1.00000 3.010 1.000     22.513  23.000
  174 2.950 2.563  3.337 1.000 1.00000 2.950 1.000      9.823  23.000
  175 2.980 2.590  3.370 1.000 1.00000 2.980 1.000      6.936  23.000
  176 2.990 2.599  3.381 1.000 1.00000 2.990 1.000      5.780  23.000
  177 3.010 2.617  3.403 1.000 1.00000 3.010 1.000     14.486  23.000
  178 3.000 2.608  3.392 1.000 1.00000 3.000 1.000      9.733  23.000
  179 2.970 2.581  3.359 1.000 1.00000 2.970 1.000      8.464  23.000
  180 2.960 2.572  3.348 1.000 1.00000 2.960 1.000      6.737  23.000
  181 3.020 2.626  3.414 1.000 1.00000 3.020 1.000     18.651  23.000
  182 2.970 2.581  3.359 1.000 1.00000 2.970 1.000     21.378  23.000
  183 2.990 2.599  3.381 1.000 1.00000 2.990 1.000     21.481  23.000
  184 2.980 2.590  3.370 1.000 1.00000 2.980 1.000      4.001  23.000
  185 3.020 2.626  3.414 1.000 1.00000 3.020 1.000     11.877  23.000
  186 3.000 2.608  3.392 1.000 1.00000 3.000 1.000     23.861  23.000
  187 3.010 2.617  3.403 1.000 1.00000 3.010 1.000     14.982  23.000
  188 2.960 2.572  3.348 1.000 1.00000 2.960 1.000      3.920  23.000
  189 2.960 2.572  3.348 1.000 1.00000 2.960 1.000      2.538  23.000
  190 2.980 2.590  3.370 1.000 1.00000 2.980 1.000      6.686  23.000
  191 2.980 2.590  3.370 1.000 1.00000 2.980 1.000     12.976  23.000
  192 2.970 2.581  3.359 1.000 1.00000 2.970 1.000     22.171  23.000
  193 2.960 2.572  3.348 1.000 1.00000 2.960 1.000     18.905  23.000
  194 2.970 2.581  3.359 1.000 1.00000 2.970 1.000     18.283  23.000
  195 2.970 2.581  3.359 1.000 1.00000 2.970 1.000      6.747  23.000
  196 3.040 2.644  3.436 1.000 1.00000 3.040 1.000     40.997  23.000
  197 2.960 2.572  3.348 1.000 1.00000 2.960 1.000      5.747  23.000
  198 3.010 2.617  3.403 1.000 1.00000 3.010 1.000     20.468  23.000
  199 3.000 2.608  3.392 1.000 1.00000 3.000 1.000     18.994  23.000
  200 2.970 2.581  3.359 1.000 1.00000 2.970 1.000      9.369  23.000
  201 3.000 2.608  3.392 1.000 1.00000 3.000 1.000     17.249  23.000
  202 2.970 2.581  3.359 1.000 1.00000 2.970 1.000     27.147  23.000
  203 2.990 2.599  3.381 1.000 1.00000 2.990 1.000      7.308  23.000
  204 3.020 2.626  3.414 1.000 1.00000 3.020 1.000     11.347  23.000
  205 3.020 2.626  3.414 1.000 1.00000 3.020 1.000     14.253  23.000
  206 3.000 2.608  3.392 1.000 1.00000 3.000 1.000     27.872  23.000
  207 3.000 2.608  3.392 1.000 1.00000 3.000 1.000     42.392  23.000
  208 3.050 2.653  3.447 1.000 1.00000 3.050 1.000     44.648  23.000
  209 2.980 2.590  3.370 1.000 1.00000 2.980 1.000      8.808  23.000
  210 3.020 2.626  3.414 1.000 1.00000 3.020 1.000     56.096  23.000
  211 2.990 2.599  3.381 1.000 1.00000 2.990 1.000     10.530  23.000
  212 3.010 2.617  3.403 1.000 1.00000 3.010 1.000     11.737  23.000
  213 3.010 2.617  3.403 1.000 1.00000 3.010 1.000     48.377  23.000
  214 2.980 2.590  3.370 1.000 1.00000 2.980 1.000     13.466  23.000
  215 2.980 2.590  3.370 1.000 1.00000 2.980 1.000     19.630  23.000
  216 3.020 2.626  3.414 1.000 1.00000 3.020 1.000     11.470  23.000
  217 3.010 2.617  3.403 1.000 1.00000 3.010 1.000     39.281  23.000
  218 2.960 2.572  3.348 1.000 1.00000 2.960 1.000      2.593  23.000
  219 2.960 2.572  3.348 1.000 1.00000 2.960 1.000     13.354  23.000
  220 3.050 2.653  3.447 1.000 1.00000 3.050 1.000     43.268  23.000
  221 3.040 2.644  3.436 1.000 1.00000 3.040 1.000     11.569  23.000
  222 2.990 2.599  3.381 1.000 1.00000 2.990 1.000      8.028  23.000
  223 3.040 2.644  3.436 1.000 1.00000 3.040 1.000     42.048  23.000
  224 2.980 2.590  3.370 1.000 1.00000 2.980 1.000      3.862  23.000
  225 3.020 2.626  3.414 1.000 1.00000 3.020 1.000      9.882  23.000
  226 3.030 2.635  3.425 1.000 1.00000 3.030 1.000     57.813  23.000
  227 3.000 2.608  3.392 1.000 1.00000 3.000 1.000     20.695  23.000
  228 2.990 2.599  3.381 1.000 1.00000 2.990 1.000      9.509  23.000
  229 3.040 2.644  3.436 1.000 1.00000 3.040 1.000     42.282  23.000
  230 2.950 2.563  3.337 1.000 1.00000 2.950 1.000      3.703  23.000
  231 2.990 2.599  3.381 1.000 1.00000 2.990 1.000     37.964  23.000
  232 3.010 2.617  3.403 1.000 1.00000 3.010 1.000     39.997  23.000
  233 2.970 2.581  3.359 1.000 1.00000 2.970 1.000     13.299  23.000
  234 3.040 2.644  3.436 1.000 1.00000 3.040 1.000     23.865  23.000
  235 3.020 2.626  3.414 1.000 1.00000 3.020 1.000     13.559  23.000
  236 2.970 2.581  3.359 1.000 1.00000 2.970 1.000      5.809  23.000
  237 2.990 2.599  3.381 1.000 1.00000 2.990 1.000     29.962  23.000
  238 2.960 2.572  3.348 1.000 1.00000 2.960 1.000     29.923  23.000
  239 2.990 2.599  3.381 1.000 1.00000 2.990 1.000     15.766  23.000
  240 2.960 2.572  3.348 1.000 1.00000 2.960 1.000      8.500  23.000
  241 2.970 2.581  3.359 1.000 1.00000 2.970 1.000      3.274  23.000
  242 2.980 2.590  3.370 1.000 1.00000 2.980 1.000      7.375  23.000
  243 3.020 2.626  3.414 1.000 1.00000 3.020 1.000     20.172  23.000
  244 2.970 2.581  3.359 1.000 1.00000 2.970 1.000      6.453  23.000
  245 2.980 2.590  3.370 1.000 1.00000 2.980 1.000      5.464  23.000
  246 3.010 2.617  3.403 1.000 1.00000 3.010 1.000     21.034  23.000
  247 2.970 2.581  3.359 1.000 1.00000 2.970 1.000      3.863  23.000
  248 3.050 2.653  3.447 1.000 1.00000 3.050 1.000     30.031  23.000
  249 3.030 2.635  3.425 1.000 1.00000 3.030 1.000     12.193  23.000
  250 2.960 2.572  3.348 1.000 1.00000 2.960 1.000     11.608  23.000
  251 3.000 2.608  3.392 1.000 1.00000 3.000 1.000     32.967  23.000
  252 2.960 2.572  3.348 1.000 1.00000 2.960 1.000     20.576  23.000
  253 2.960 2.572  3.348 1.000 1.00000 2.960 1.000     12.121  23.000
  254 2.960 2.572  3.348 1.000 1.00000 2.960 1.000     17.383  23.000
  255 3.020 2.626  3.414 1.000 1.00000 3.020 1.000     32.744  23.000
  256 2.970 2.581  3.359 1.000 1.00000 2.970 1.000     17.016  23.000
  257 2.950 2.563  3.337 1.000 1.00000 2.950 1.000     23.375  23.000
  258 3.000 2.608  3.392 1.000 1.00000 3.000 1.000     12.226  23.000
  259 2.990 2.599  3.381 1.000 1.00000 2.990 1.000      7.192  23.000
  260 2.980 2.590  3.370 1.000 1.00000 2.980 1.000     21.594  23.000
  261 2.980 2.590  3.370 1.000 1.00000 2.980 1.000     27.702  23.000
  262 2.960 2.572  3.348 1.000 1.00000 2.960 1.000     36.440  23.000
  263 2.970 2.581  3.359 1.000 1.00000 2.970 1.000     15.188  23.000
  264 2.970 2.581  3.359 1.000 1.00000 2.970 1.000     30.851  23.000
  265 3.000 2.608  3.392 1.000 1.00000 3.000 1.000     14.716  23.000
  266 2.970 2.581  3.359 1.000 1.00000 2.970 1.000      9.040  23.000
  267 2.970 2.581  3.359 1.000 1.00000 2.970 1.000     13.025  23.000
  268 2.990 2.599  3.381 1.000 1.00000 2.990 1.000     20.012  23.000
  269 3.000 2.608  3.392 1.000 1.00000 3.000 1.000     28.881  23.000
  270 3.000 2.608  3.392 1.000 1.00000 3.000 1.000     21.770  23.000
  271 2.960 2.572  3.348 1.000 1.00000 2.960 1.000     32.426  23.000
  272 3.030 2.635  3.425 1.000 1.00000 3.030 1.000     47.101  23.000
  273 2.990 2.599  3.381 1.000 1.00000 2.990 1.000     48.894  23.000
  274 3.000 2.608  3.392 1.000 1.00000 3.000 1.000     18.013  23.000
  275 2.960 2.572  3.348 1.000 1.00000 2.960 1.000     12.618  23.000
  276 2.960 2.572  3.348 1.000 1.00000 2.960 1.000      8.089  23.000
  277 2.970 2.581  3.359 1.000 1.00000 2.970 1.000      9.607  23.000
  278 3.010 2.617  3.403 1.000 1.00000 3.010 1.000     35.532  23.000
  279 2.990 2.599  3.381 1.000 1.00000 2.990 1.000     20.225  23.000
  280 2.990 2.599  3.381 1.000 1.00000 2.990 1.000     39.112  23.000
  281 2.950 2.563  3.337 1.000 1.00000 2.950 1.000      4.285  23.000
  282 2.970 2.581  3.359 1.000 1.00000 2.970 1.000     36.163  23.000
  283 3.000 2.608  3.392 1.000 1.00000 3.000 1.000     55.730  23.000
  284 3.000 2.608  3.392 1.000 1.00000 3.000 1.000      9.395  23.000
  285 3.020 2.626  3.414 1.000 1.00000 3.020 1.000     44.050  23.000
  286 3.020 2.626  3.414 1.000 1.00000 3.020 1.000     30.600  23.000
  287 2.960 2.572  3.348 1.000 1.00000 2.960 1.000     10.847  23.000
  288 2.960 2.572  3.348 1.000 1.00000 2.960 1.000     16.927  23.000
  289 3.000 2.608  3.392 1.000 1.00000 3.000 1.000      8.364  23.000
  290 2.980 2.590  3.370 1.000 1.00000 2.980 1.000      3.778  23.000
  291 2.990 2.599  3.381 1.000 1.00000 2.990 1.000     11.987  23.000
  292 3.020 2.626  3.414 1.000 1.00000 3.020 1.000     11.840  23.000
  293 2.980 2.590  3.370 1.000 1.00000 2.980 1.000      6.206  23.000
  294 2.970 2.581  3.359 1.000 1.00000 2.970 1.000     11.343  23.000
  295 2.980 2.590  3.370 1.000 1.00000 2.980 1.000     22.764  23.000
  296 2.990 2.599  3.381 1.000 1.00000 2.990 1.000     10.010  23.000
  297 2.980 2.590  3.370 1.000 1.00000 2.980 1.000      6.682  23.000
  298 2.970 2.581  3.359 1.000 1.00000 2.970 1.000     20.159  23.000
  299 2.960 2.572  3.348 1.000 1.00000 2.960 1.000     29.002  23.000
  300 3.010 2.617  3.403 1.000 1.00000 3.010 1.000     32.669  23.000
  301 3.010 2.617  3.403 1.000 1.00000 3.010 1.000     24.939  23.000
  302 2.970 2.581  3.359 1.000 1.00000 2.970 1.000      9.209  23.000
  303 2.990 2.599  3.381 1.000 1.00000 2.990 1.000     19.808  23.000
  304 3.000 2.608  3.392 1.000 1.00000 3.000 1.000     45.318  23.000
  305 2.980 2.590  3.370 1.000 1.00000 2.980 1.000     33.490  23.000
  306 3.030 2.635  3.425 1.000 1.00000 3.030 1.000     37.956  23.000
  307 2.960 2.572  3.348 1.000 1.00000 2.960 1.000      8.991  23.000
  308 2.950 2.563  3.337 1.000 1.00000 2.950 1.000      6.426  23.000
  309 2.970 2.581  3.359 1.000 1.00000 2.970 1.000     34.717  23.000
  310 3.040 2.644  3.436 1.000 1.00000 3.040 1.000     16.457  23.000
  311 3.070 2.671  3.469 1.000 1.00000 3.070 1.000     29.481  23.000
  312 2.970 2.581  3.359 1.000 1.00000 2.970 1.000      3.581  23.000
  313 3.020 2.626  3.414 1.000 1.00000 3.020 1.000     34.312  23.000
  314 2.960 2.572  3.348 1.000 1.00000 2.960 1.000     21.453  23.000
  315 3.020 2.626  3.414 1.000 1.00000 3.020 1.000     11.488  23.000
  316 2.960 2.572  3.348 1.000 1.00000 2.960 1.000     19.723  23.000
  317 2.970 2.581  3.359 1.000 1.00000 2.970 1.000     21.073  23.000
  318 3.010 2.617  3.403 1.000 1.00000 3.010 1.000     45.114  23.000
  319 3.000 2.608  3.392 1.000 1.00000 3.000 1.000     11.343  23.000
  320 3.020 2.626  3.414 1.000 1.00000 3.020 1.000     14.227  23.000
  321 2.970 2.581  3.359 1.000 1.00000 2.970 1.000     44.283  23.000
  322 2.960 2.572  3.348 1.000 1.00000 2.960 1.000     28.241  23.000
  323 3.000 2.608  3.392 1.000 1.00000 3.000 1.000     23.438  23.000
  324 3.000 2.608  3.392 1.000 1.00000 3.000 1.000     27.047  23.000
  325 3.000 2.608  3.392 1.000 1.00000 3.000 1.000      6.206  23.000
  326 3.030 2.635  3.425 1.000 1.00000 3.030 1.000     34.874  23.000
  327 2.980 2.590  3.370 1.000 1.00000 2.980 1.000     24.741  23.000
  328 2.960 2.572  3.348 1.000 1.00000 2.960 1.000      6.824  23.000
  329 2.980 2.590  3.370 1.000 1.00000 2.980 1.000      3.826  23.000
  330 2.990 2.599  3.381 1.000 1.00000 2.990 1.000      5.614  23.000
  331 2.940 2.554  3.326 1.000 1.00000 2.940 1.000     13.748  23.000
  332 2.950 2.563  3.337 1.000 1.00000 2.950 1.000     11.812  23.000
  333 2.980 2.590  3.370 1.000 1.00000 2.980 1.000     29.817  23.000
  334 3.000 2.608  3.392 1.000 1.00000 3.000 1.000     24.880  23.000
  335 2.990 2.599  3.381 1.000 1.00000 2.990 1.000     10.644  23.000
  336 2.950 2.563  3.337 1.000 1.00000 2.950 1.000      2.710  23.000
  337 3.000 2.608  3.392 1.000 1.00000 3.000 1.000     14.937  23.000
  338 2.960 2.572  3.348 1.000 1.00000 2.960 1.000     15.044  23.000
  339 2.970 2.581  3.359 1.000 1.00000 2.970 1.000      9.539  23.000
  340 3.040 2.644  3.436 1.000 1.00000 3.040 1.000     20.172  23.000
  341 2.960 2.572  3.348 1.000 1.00000 2.960 1.000     29.003  23.000
  342 2.950 2.563  3.337 1.000 1.00000 2.950 1.000      3.925  23.000
  343 2.980 2.590  3.370 1.000 1.00000 2.980 1.000     20.371  23.000
  344 2.970 2.581  3.359 1.000 1.00000 2.970 1.000     28.143  23.000
  345 3.020 2.626  3.414 1.000 1.00000 3.020 1.000     12.301  23.000
  346 2.980 2.590  3.370 1.000 1.00000 2.980 1.000      3.814  23.000
  347 2.960 2.572  3.348 1.000 1.00000 2.960 1.000     20.978  23.000
  348 2.960 2.572  3.348 1.000 1.00000 2.960 1.000     21.875  23.000
  349 2.960 2.572  3.348 1.000 1.00000 2.960 1.000     11.430  23.000
  350 2.960 2.572  3.348 1.000 1.00000 2.960 1.000      5.200  23.000
  351 2.940 2.554  3.326 1.000 1.00000 2.940 1.000      4.639  23.000
  352 2.960 2.572  3.348 1.000 1.00000 2.960 1.000      2.578  23.000
  353 2.960 2.572  3.348 1.000 1.00000 2.960 1.000      3.543  23.000
  354 2.960 2.572  3.348 1.000 1.00000 2.960 1.000     28.153  23.000
  355 3.020 2.626  3.414 1.000 1.00000 3.020 1.000     20.566  23.000
  356 2.980 2.590  3.370 1.000 1.00000 2.980 1.000     23.099  23.000
  357 3.020 2.626  3.414 1.000 1.00000 3.020 1.000     15.272  23.000
  358 2.950 2.563  3.337 1.000 1.00000 2.950 1.000     13.672  23.000
  359 3.000 2.608  3.392 1.000 1.00000 3.000 1.000      8.204  23.000
  360 3.000 2.608  3.392 1.000 1.00000 3.000 1.000     40.816  23.000
  361 3.040 2.644  3.436 1.000 1.00000 3.040 1.000     26.084  23.000
  362 3.030 2.635  3.425 1.000 1.00000 3.030 1.000     18.410  23.000
  363 2.970 2.581  3.359 1.000 1.00000 2.970 1.000     10.756  23.000
  364 2.980 2.590  3.370 1.000 1.00000 2.980 1.000      9.099  23.000
  365 2.980 2.590  3.370 1.000 1.00000 2.980 1.000     30.825  23.000
  366 2.970 2.581  3.359 1.000 1.00000 2.970 1.000     13.806  23.000
  367 2.960 2.572  3.348 1.000 1.00000 2.960 1.000     13.841  23.000
  368 2.960 2.572  3.348 1.000 1.00000 2.960 1.000     29.953  23.000
  369 2.970 2.581  3.359 1.000 1.00000 2.970 1.000      3.879  23.000
  370 2.970 2.581  3.359 1.000 1.00000 2.970 1.000     20.678  23.000
  371 2.980 2.590  3.370 1.000 1.00000 2.980 1.000      3.781  23.000
  372 2.960 2.572  3.348 1.000 1.00000 2.960 1.000     21.511  23.000
  373 2.980 2.590  3.370 1.000 1.00000 2.980 1.000     12.449  23.000
  374 2.950 2.563  3.337 1.000 1.00000 2.950 1.000     12.130  23.000
  375 2.970 2.581  3.359 1.000 1.00000 2.970 1.000     21.112  23.000
  376 2.960 2.572  3.348 1.000 1.00000 2.960 1.000     16.058  23.000
  377 2.990 2.599  3.381 1.000 1.00000 2.990 1.000     10.466  23.000
  378 2.960 2.572  3.348 1.000 1.00000 2.960 1.000     10.746  23.000
  379 2.970 2.581  3.359 1.000 1.00000 2.970 1.000     15.861  23.000
  380 2.950 2.563  3.337 1.000 1.00000 2.950 1.000      8.630  23.000
  381 3.010 2.617  3.403 1.000 1.00000 3.010 1.000     12.180  23.000
  382 2.970 2.581  3.359 1.000 1.00000 2.970 1.000     12.388  23.000
  383 3.030 2.635  3.425 1.000 1.00000 3.030 1.000     20.939  23.000
  384 2.980 2.590  3.370 1.000 1.00000 2.980 1.000      4.038  23.000
  385 3.010 2.617  3.403 1.000 1.00000 3.010 1.000     21.465  23.000
  386 2.960 2.572  3.348 1.000 1.00000 2.960 1.000     18.425  23.000
  387 2.960 2.572  3.348 1.000 1.00000 2.960 1.000     18.111  23.000
  388 2.950 2.563  3.337 1.000 1.00000 2.950 1.000     11.854  23.000
  389 2.990 2.599  3.381 1.000 1.00000 2.990 1.000      5.852  23.000
  390 2.990 2.599  3.381 1.000 1.00000 2.990 1.000     29.052  23.000
  391 3.000 2.608  3.392 1.000 1.00000 3.000 1.000     21.600  23.000
  392 3.030 2.635  3.425 1.000 1.00000 3.030 1.000     17.810  23.000
  393 3.000 2.608  3.392 1.000 1.00000 3.000 1.000     17.659  23.000
  394 2.950 2.563  3.337 1.000 1.00000 2.950 1.000      4.226  23.000
  395 2.950 2.563  3.337 1.000 1.00000 2.950 1.000      7.453  23.000
  396 2.990 2.599  3.381 1.000 1.00000 2.990 1.000     13.520  23.000
  397 3.000 2.608  3.392 1.000 1.00000 3.000 1.000     16.855  23.000
  398 3.000 2.608  3.392 1.000 1.00000 3.000 1.000     34.443  23.000
  399 3.000 2.608  3.392 1.000 1.00000 3.000 1.000     23.285  23.000
  400 2.980 2.590  3.370 1.000 1.00000 2.980 1.000     22.711  23.000
